insole,foot,timestamp,seq,acx,acy,acz,gyrx,gyry,gyrz,p_toe_1_f,p_toe_1_b,p_toe_3,p_toe_5,p_arc_i,p_arc_o,p_heel_i,p_heel_o,roll,pitch,yaw
00:3B:13:12:01:3D:4B:F1,left,1665651726,1,-0.02,-0.034000002,1.003000021,-1.299999952,-1.799999952,1.200000048,0,0,0,0,0,0,0,0,-0.980000019,-0.579999983,0.02
00:3B:13:12:01:3D:4B:F1,left,1665651726,2,-0.018999999,-0.029999999,1.004999995,-1.600000024,-1.899999976,1,0,0,0,0,0,0,0,0,-1.350000024,-0.839999974,0.039999999
00:3B:13:12:01:3D:4B:F1,left,1665651726,3,-0.02,-0.037999999,1.003999949,-1.100000024,-2,1.5,0,0,0,0,0,0,0,0,-1.75999999,-1.00999999,0.07
00:3B:13:12:01:3D:4B:F1,left,1665651726,4,-0.018999999,-0.022,1.00999999,-1.899999976,-2.299999952,1.399999976,0,0,0,0,0,0,0,0,-1.50999999,-1.059999943,0.090000004
00:3B:13:12:01:3D:4B:F1,left,1665651726,5,-0.018999999,-0.029999999,1.003000021,-0.5,-2.599999905,1.399999976,0,0,0,0,0,0,0,0,-1.610000014,-1.090000033,0.109999999
00:3B:13:12:01:3D:4B:F1,left,1665651726,6,-0.017999999,-0.024,1.01699996,-1.799999952,-3.099999905,0,0,0,0,0,0,0,0,0,-1.49000001,-1.080000043,0.109999999
00:3B:13:12:01:3D:4B:F1,left,1665651726,7,-0.015,-0.028999999,1.014999986,-0.699999988,-4.300000191,-0.5,0,0,0,0,0,0,0,0,-1.559999943,-1,0.109999999
00:3B:13:12:01:3D:4B:F1,left,1665651726,8,-0.023,-0.028000001,1.008000016,-0.899999976,-5.599999905,-1.600000024,0,0,0,0,0,0,0,0,-1.580000043,-1.200000048,0.079999998
00:3B:13:12:01:3D:4B:F1,left,1665651726,9,-0.030999999,-0.034000002,1.001000047,-1.899999976,-5.699999809,-1.700000048,0,0,0,0,0,0,0,0,-1.769999981,-1.539999962,0.050000001
00:3B:13:12:01:3D:4B:F1,left,1665651726,10,-0.026000001,-0.048999999,1.029999971,-3.200000048,-6.199999809,-1.399999976,0,0,0,0,0,0,0,0,-2.089999914,-1.590000033,0.029999999
00:3B:13:12:01:3D:4B:F1,left,1665651726,11,-0.046999998,-0.048,1.024999976,0.699999988,-8.100000381,-3.200000048,0,0,0,0,0,0,0,0,-2.380000114,-2.180000067,-0.029999999
00:3B:13:12:01:3D:4B:F1,left,1665651726,12,-0.097999997,-0.054000001,0.981000006,-1.5,-8.5,1.5,0,0,0,0,0,0,0,0,-2.779999971,-4.019999981,0
00:3B:13:12:01:3D:4B:F1,left,1665651726,13,-0.081,-0.061999999,0.970000029,-11.39999962,-7.300000191,4,0,0,0,0,0,0,0,0,-3.319999933,-4.460000038,0.079999998
00:3B:13:12:01:3D:4B:F1,left,1665651726,14,-0.050000001,-0.064999998,0.970000029,-5,-5.300000191,3.200000048,0,0,0,0,0,0,0,0,-3.619999886,-3.75,0.140000001
00:3B:13:12:01:3D:4B:F1,left,1665651726,15,-0.050999999,-0.041999999,0.991999984,-2.200000048,-2.900000095,-2.400000095,0,0,0,0,0,0,0,0,-3.039999962,-3.369999886,0.100000001
00:3B:13:12:01:3D:4B:F1,left,1665651726,16,-0.056000002,-0.037,0.984000027,4.800000191,-1.799999952,-7.400000095,0,0,0,0,0,0,0,0,-2.549999952,-3.319999933,-0.039999999
00:3B:13:12:01:3D:4B:F1,left,1665651726,17,-0.048,-0.007,1,1.200000048,-1.200000048,-9.399999619,0,0,0,0,0,0,0,0,-1.460000038,-3.029999971,-0.219999999
00:3B:13:12:01:3D:4B:F1,left,1665651726,18,-0.033,-0.017000001,0.991999984,4,-0.899999976,-9,0,0,0,0,0,0,0,0,-1.179999948,-2.460000038,-0.400000006
00:3B:13:12:01:3D:4B:F1,left,1665651726,19,-0.027000001,-0.014,1.001000047,1.200000048,-0.400000006,-7.900000095,0,0,0,0,0,0,0,0,-0.980000019,-2,-0.550000012
00:3B:13:12:01:3D:4B:F1,left,1665651726,20,-0.01,-0.027000001,1.013000011,2.099999905,-0.600000024,-5.300000191,0,0,0,0,0,0,0,0,-1.230000019,-1.279999971,-0.649999976
00:3B:13:12:01:3D:4B:F1,left,1665651726,21,-0.004,-0.023,1.02699995,-1.299999952,-1.899999976,-5,0,0,0,0,0,0,0,0,-1.25999999,-0.75999999,-0.75
00:3B:13:12:01:3D:4B:F1,left,1665651726,22,-0.039000001,-0.061000001,0.98299998,1.899999976,-2.299999952,-2.299999952,0,0,0,0,0,0,0,0,-2.390000105,-1.529999971,-0.790000021
00:3B:13:12:01:3D:4B:F1,left,1665651726,23,-0.088,-0.061999999,0.943000019,-3.400000095,0.5,3.900000095,0,0,0,0,0,0,0,0,-2.839999914,-2.660000086,-0.720000029
00:3B:13:12:01:3D:4B:F1,left,1665651726,24,-0.079999998,-0.079999998,0.957000017,-11.10000038,4.099999905,6.099999905,0,0,0,0,0,0,0,0,-3.569999933,-3.230000019,-0.600000024
00:3B:13:12:01:3D:4B:F1,left,1665651726,25,-0.059999999,-0.082999997,0.980000019,-1.5,6.5,7.300000191,0,0,0,0,0,0,0,0,-4.21999979,-3.289999962,-0.460000008
00:3B:13:12:01:3D:4B:F1,left,1665651726,26,-0.041000001,-0.057,0.981000006,0.300000012,8.300000191,4.599999905,0,0,0,0,0,0,0,0,-3.769999981,-2.75,-0.370000005
00:3B:13:12:01:3D:4B:F1,left,1665651726,27,-0.041999999,-0.050999999,0.999000013,6.300000191,10.39999962,0.100000001,0,0,0,0,0,0,0,0,-3.279999971,-2.470000029,-0.370000005
00:3B:13:12:01:3D:4B:F1,left,1665651726,28,-0.226999998,0.055,0.869000018,5.599999905,18,1.799999952,0,0,0,0,0,0,0,0,-2.49000001,-3.359999895,-0.340000004
00:3B:13:12:01:3D:4B:F1,left,1665651726,29,-0.167999998,-0.078000002,0.940999985,-51.90000153,32.20000076,25.20000076,0,0,0,0,0,0,0,0,-3.880000114,-4.929999828,0.159999996
00:3B:13:12:01:3D:4B:F1,left,1665651727,30,-0.07,-0.027000001,1.222000003,-24.20000076,35.09999847,24.89999962,0,0,0,0,0,0,0,0,-4.050000191,-4.130000114,0.649999976
00:3B:13:12:01:3D:4B:F1,left,1665651727,31,-0.054000001,-0.043000001,1.093999982,8.300000191,21.79999924,10.69999981,0,0,0,0,0,0,0,0,-3.390000105,-3.430000067,0.860000014
00:3B:13:12:01:3D:4B:F1,left,1665651727,32,-0.118000001,0.034000002,1.032999992,12.69999981,3.799999952,5.699999809,0,0,0,0,0,0,0,0,-1.629999995,-4.300000191,0.970000029
00:3B:13:12:01:3D:4B:F1,left,1665651727,33,-0.150000006,-0.002,1.031000018,5.099999905,4.400000095,3.599999905,0,0,0,0,0,0,0,0,-1.100000024,-5.429999828,1.039999962
00:3B:13:12:01:3D:4B:F1,left,1665651727,34,-0.129999995,-0.012,1.093000054,17.89999962,16.39999962,9.600000381,0,0,0,0,0,0,0,0,-0.730000019,-5.269999981,1.230000019
00:3B:13:12:01:3D:4B:F1,left,1665651727,35,-0.115999997,-0.015,1.052999973,11,20,15.10000038,0,0,0,0,0,0,0,0,-0.600000024,-5.289999962,1.529999971
00:3B:13:12:01:3D:4B:F1,left,1665651727,36,-0.050999999,-0.037999999,1.106999993,16.89999962,2.299999952,19.79999924,0,0,0,0,0,0,0,0,-0.430000007,-4.980000019,1.919999957
00:3B:13:12:01:3D:4B:F1,left,1665651727,37,-0.041999999,-0.061999999,0.996999979,30.79999924,-12.69999981,25.29999924,0,0,0,0,0,0,0,0,-1.679999948,-3.809999943,2.420000076
00:3B:13:12:01:3D:4B:F1,left,1665651727,38,-0.037,-0.068000004,0.903999984,31.5,-12.60000038,28.89999962,0,0,0,0,0,0,0,0,-2.019999981,-3.539999962,2.99000001
00:3B:13:12:01:3D:4B:F1,left,1665651727,39,0.054000001,-0.079000004,0.903999984,27.20000076,-1.200000048,34,0,0,0,0,0,0,0,0,-2.529999971,-1.450000048,3.670000076
00:3B:13:12:01:3D:4B:F1,left,1665651727,40,0.173999995,-0.089000002,0.904999971,24.20000076,-7.599999905,27.39999962,0,0,0,0,0,0,0,0,-3.109999895,2.119999886,4.210000038
00:3B:13:12:01:3D:4B:F1,left,1665651727,41,0.180999994,-0.096000001,0.82099998,31.5,-4.5,16.5,0,0,0,0,0,0,0,0,-2.890000105,3.059999943,4.539999962
00:3B:13:12:01:3D:4B:F1,left,1665651727,42,0.310000002,-0.180000007,0.86500001,0,19.60000038,12.89999962,0,0,0,0,0,0,0,0,-5.539999962,8.210000038,4.789999962
00:3B:13:12:01:3D:4B:F1,left,1665651727,43,0.702000022,-0.444999993,1.77699995,-62.40000153,-8.899999619,18,0,0,0,0,0,0,0,0,-7.5,9.329999924,5.150000095
00:3B:13:12:01:3D:4B:F1,left,1665651727,44,0.742999971,0.279000014,1.125,43.79999924,17.60000038,-13.60000038,0,0,0,0,0,0,0,0,-4.570000172,11.97000027,4.880000114
00:3B:13:12:01:3D:4B:F1,left,1665651727,45,-0.217999995,0.005,0.677999973,-15.10000038,23.20000076,-68.69999695,0,0,0,0,0,0,0,0,-4.340000153,9.399999619,3.50999999
00:3B:13:12:01:3D:4B:F1,left,1665651727,46,0.195999995,0.123999998,1.085000038,-16.39999962,7.199999809,-72.19999695,0,0,0,0,0,0,0,0,-3.539999962,9.600000381,2.069999933
00:3B:13:12:01:3D:4B:F1,left,1665651727,47,-0.398999989,0.052999999,1.014000058,-4,5.599999905,-14.30000019,0,0,0,0,0,0,0,0,-1.629999995,0.360000014,1.789999962
00:3B:13:12:01:3D:4B:F1,left,1665651727,48,-0.082000002,0.32100001,1.103999972,12,13.19999981,15.89999962,0,0,0,0,0,0,0,0,0.370000005,0.150000006,2.099999905
00:3B:13:12:01:3D:4B:F1,left,1665651727,49,0.279000014,-0.240999997,0.852999985,5.400000095,11.39999962,19.29999924,0,0,0,0,0,0,0,0,-4.400000095,5.5,2.480000019
00:3B:13:12:01:3D:4B:F1,left,1665651727,50,0.083999999,0.046,1.011000037,7.800000191,2.099999905,-4.5,0,0,50,0,0,0,923,181,-0.819999993,5.139999866,2.390000105
00:3B:13:12:01:3D:4B:F1,left,1665651727,51,0.050999999,0.088,0.986000001,-9.199999809,-1.600000024,-1.200000048,50,52,52,50,52,50,2282,2192,2.049999952,4.019999981,2.369999886
00:3B:13:12:01:3D:4B:F1,left,1665651727,52,0.107000001,-0.017000001,0.936999977,14.39999962,-0.899999976,-13.10000038,52,52,52,50,52,50,2677,2567,1.309999943,4.760000229,2.109999895
00:3B:13:12:01:3D:4B:F1,left,1665651727,53,0.066,0.075999998,1.026000023,-18,-10.39999962,-3.299999952,52,52,52,50,52,50,2807,2720,1.929999948,4.289999962,2.049999952
00:3B:13:12:01:3D:4B:F1,left,1665651727,54,0.012,0.07,0.963999987,13.69999981,-7.099999905,0,52,52,50,52,50,52,2868,2793,2.779999971,3.109999895,2.049999952
00:3B:13:12:01:3D:4B:F1,left,1665651727,55,0.093000002,0.035999998,1.001000047,-15.5,-10.10000038,0.100000001,52,52,50,50,52,52,2899,2853,2.25999999,4.099999905,2.049999952
00:3B:13:12:01:3D:4B:F1,left,1665651727,56,0.039999999,0.054000001,0.990999997,6.5,-7.099999905,7.699999809,50,52,52,50,52,50,2931,2899,2.75,3.130000114,2.200000048
00:3B:13:12:01:3D:4B:F1,left,1665651727,57,0.028999999,0.077,1.014999986,-11.19999981,-8,6.400000095,50,52,50,50,52,52,2946,2915,3.430000067,2.299999952,2.319999933
00:3B:13:12:01:3D:4B:F1,left,1665651727,58,0.048,-0.003,0.980000019,-2.5,-8.399999619,6.900000095,50,52,52,50,52,50,2962,2931,1.600000024,2.470000029,2.450000048
00:3B:13:12:01:3D:4B:F1,left,1665651727,59,0.018999999,0.061000001,1.029999971,-10.5,-6,10.80000019,52,52,52,50,52,50,2962,2946,1.980000019,1.960000038,2.660000086
00:3B:13:12:01:3D:4B:F1,left,1665651727,60,0.037,-0.012,0.986999989,-3.900000095,-4.400000095,4.300000191,52,52,52,50,52,52,2946,2946,0.600000024,2.00999999,2.74000001
00:3B:13:12:01:3D:4B:F1,left,1665651727,61,0.059999999,0.039000001,1.023000002,-7.5,-4.900000095,9.5,52,52,52,52,52,52,2946,2946,1.309999943,2.630000114,2.930000067
00:3B:13:12:01:3D:4B:F1,left,1665651727,62,0.012,0.013,0.981000006,-4.099999905,-3.700000048,2.700000048,50,52,50,50,50,52,2931,2931,0.99000001,1.629999995,2.980000019
00:3B:13:12:01:3D:4B:F1,left,1665651727,63,0.092,0.004,0.992999971,0.200000003,-7.900000095,8,50,52,52,50,52,50,2931,2931,0.610000014,3.380000114,3.140000105
00:3B:13:12:01:3D:4B:F1,left,1665651727,64,0.02,0.018999999,1.014000058,-2.700000048,-10.89999962,5.699999809,52,52,52,52,52,50,2915,2931,0.810000002,2.140000105,3.25
00:3B:13:12:01:3D:4B:F1,left,1665651727,65,-0.028999999,-0.006,0.996999979,1.799999952,-2.799999952,-9.800000191,52,52,52,52,52,50,2899,2931,0.239999995,0.209999993,3.059999943
00:3B:13:12:01:3D:4B:F1,left,1665651727,66,0.057999998,0.027000001,1.013000011,-7.099999905,-4.699999809,-4.900000095,50,52,52,52,52,52,2899,2931,0.810000002,1.690000057,2.970000029
00:3B:13:12:01:3D:4B:F1,left,1665651727,67,-0.013,0.059999999,0.978999972,-0.300000012,-3.299999952,0.899999976,50,52,50,50,50,52,2884,2915,2.150000095,0.430000007,2.980000019
00:3B:13:12:01:3D:4B:F1,left,1665651727,68,0.043000001,0.013,1.019999981,-2.200000048,-1.399999976,11.10000038,50,50,52,50,52,50,2884,2915,1.419999957,1.419999957,3.200000048
00:3B:13:12:01:3D:4B:F1,left,1665651727,69,0.008,0.014,0.992999971,-6.199999809,-0.899999976,6.699999809,52,52,52,52,52,50,2868,2899,1.049999952,0.939999998,3.329999924
00:3B:13:12:01:3D:4B:F1,left,1665651727,70,0.086000003,-0.007,0.995999992,-1.299999952,-4.900000095,4.900000095,52,52,52,50,50,50,2853,2884,0.310000002,2.890000105,3.420000076
00:3B:13:12:01:3D:4B:F1,left,1665651727,71,0.090999998,-0.079000004,1.003999949,7.599999905,-16.10000038,-4,52,52,52,50,52,50,2807,2838,-2.00999999,3.859999895,3.339999914
00:3B:13:12:01:3D:4B:F1,left,1665651727,72,-0.122000001,0.189999998,1.04400003,-12.69999981,-11.69999981,8.5,52,52,52,50,52,52,2778,2807,1.50999999,0.569999993,3.50999999
00:3B:13:12:01:3D:4B:F1,left,1665651727,73,0.02,-0.079999998,0.954999983,8.300000191,-3.599999905,4.599999905,50,52,52,50,52,50,2763,2778,-0.25999999,0.699999988,3.599999905
00:3B:13:12:01:3D:4B:F1,left,1665651727,74,0.001,0.079999998,1.057000041,-7.800000191,-3.200000048,9.699999809,50,52,52,52,52,50,2778,2778,1.00999999,0.460000008,3.789999962
00:3B:13:12:01:3D:4B:F1,left,1665651727,75,0.003,-0.016000001,0.949000001,14.10000038,-0.899999976,11.19999981,52,52,52,52,52,50,2793,2807,0.610000014,0.370000005,4.010000229
00:3B:13:12:01:3D:4B:F1,left,1665651727,76,0.035,0.079000004,1.026000023,-1.899999976,-1.899999976,5.900000095,50,52,50,50,52,52,2822,2838,2.49000001,1.139999986,4.119999886
00:3B:13:12:01:3D:4B:F1,left,1665651727,77,-0.006,0.027000001,0.961000025,4.599999905,-2.099999905,0.600000024,52,52,52,50,52,52,2822,2853,2.279999971,0.660000026,4.119999886
00:3B:13:12:01:3D:4B:F1,left,1665651727,78,0.02,0.059999999,1.019999981,4.300000191,-1.899999976,0.5,52,216,52,52,52,52,2822,2853,2.859999895,0.870000005,4.119999886
00:3B:13:12:01:3D:4B:F1,left,1665651727,79,0.056000002,-0.017000001,0.990999997,-4,-3.700000048,5.099999905,52,1648,52,52,52,50,2822,2853,0.889999986,2.00999999,4.21999979
00:3B:13:12:01:3D:4B:F1,left,1665651728,80,-0.046999998,0.075999998,1.016000032,-1.399999976,-2.599999905,-10.39999962,52,1571,1011,52,52,52,2822,2822,2.569999933,-0.340000004,4.019999981
00:3B:13:12:01:3D:4B:F1,left,1665651728,81,0.061000001,-0.003,0.989000022,-3.5,-2.900000095,-0.300000012,52,1555,1548,52,52,52,2778,2778,1.159999967,1.559999943,4.019999981
00:3B:13:12:01:3D:4B:F1,left,1665651728,82,0.021,0.052000001,1.01699996,-6.800000191,-5.199999809,1.700000048,52,2004,1656,52,54,52,2705,2691,1.970000029,1.320000052,4.050000191
00:3B:13:12:01:3D:4B:F1,left,1665651728,83,-0.007,0.02,0.996999979,-18.10000038,-4.699999809,-15.39999962,52,2159,1714,52,52,52,2502,2294,1.370000005,0.409999996,3.75
00:3B:13:12:01:3D:4B:F1,left,1665651728,84,0.030999999,0.011,1.021999955,-15.10000038,-5.5,2.799999952,50,2294,2203,50,50,50,52,501,0.839999974,1.00999999,3.799999952
00:3B:13:12:01:3D:4B:F1,left,1665651728,85,0.016000001,0.018999999,1.00999999,-19.60000038,-6,-2.200000048,50,2365,2317,52,50,50,52,50,0.75999999,0.889999986,3.75999999
00:3B:13:12:01:3D:4B:F1,left,1665651728,86,-0.006,0.013,1.014999986,-17.29999924,-6.099999905,-9.699999809,50,2413,2502,50,50,50,52,52,0.569999993,0.209999993,3.569999933
00:3B:13:12:01:3D:4B:F1,left,1665651728,87,0.022,0.016000001,1.052999973,-24.20000076,-8.800000191,1.299999952,52,2259,2413,550,52,52,52,52,0.319999993,0.379999995,3.589999914
00:3B:13:12:01:3D:4B:F1,left,1665651728,88,0.012,0.001,1.09800005,-22.20000076,-13.69999981,-0.800000012,52,2149,2259,1313,52,52,52,52,-0.059999999,0.25999999,3.579999924
00:3B:13:12:01:3D:4B:F1,left,1665651728,89,0.061999999,0.055,1.217000008,-26.5,-27,11.39999962,52,2096,2203,1862,52,52,52,52,-0.270000011,0.029999999,3.799999952
00:3B:13:12:01:3D:4B:F1,left,1665651728,90,0.030999999,-0.059,1.105999947,-10.10000038,-37.70000076,23.89999962,52,2106,2225,1917,52,50,54,52,-0.720000029,-0.479999989,4.269999981
00:3B:13:12:01:3D:4B:F1,left,1665651728,91,0.059,0.052000001,1.179999948,-29,-51.09999847,20.79999924,52,2106,2259,1936,52,52,52,52,-0.910000026,-1.059999943,4.679999828
00:3B:13:12:01:3D:4B:F1,left,1665651728,92,0.045000002,-0.119999997,1.175999999,-12.89999962,-69.5,22.20000076,52,2117,2259,1946,52,52,52,52,-1.620000005,-1.980000019,5.119999886
00:3B:13:12:01:3D:4B:F1,left,1665651728,93,0.096000001,-0.004,1.338000059,-17.10000038,-88.90000153,21.20000076,52,2117,2271,1927,52,52,52,52,-1.779999971,-2.960000038,5.539999962
00:3B:13:12:01:3D:4B:F1,left,1665651728,94,0.061999999,-0.122000001,1.25,21.39999962,-110.0999985,4.300000191,1011,1817,1965,1633,52,52,52,52,-1.779999971,-4.360000134,5.619999886
00:3B:13:12:01:3D:4B:F1,left,1665651728,95,0.147,-0.001,1.463999987,-9.800000191,-134.5,2.5,1226,1927,2085,523,52,52,52,52,-1.769999981,-5.769999981,5.670000076
00:3B:13:12:01:3D:4B:F1,left,1665651728,96,0.158000007,-0.252000004,1.523000002,39.79999924,-171.5,-13.10000038,1594,2085,2225,52,52,52,52,52,-1.820000052,-7.690000057,5.409999847
00:3B:13:12:01:3D:4B:F1,left,1665651728,97,0.157000005,-0.142000005,1.547000051,13.80000019,-213.3000031,-10,1871,2034,2127,52,52,52,52,52,-1.909999967,-10.17000008,5.210000038
00:3B:13:12:01:3D:4B:F1,left,1665651728,98,0.144999996,-0.037,1.776000023,18,-257.7999878,-4.400000095,1946,2034,1782,52,52,52,52,52,-1.50999999,-13.31999969,5.130000114
00:3B:13:12:01:3D:4B:F1,left,1665651728,99,-0.165999994,-0.159999996,1.927999973,25.39999962,-302.2000122,-14.69999981,2353,2401,52,50,52,50,52,50,-1.379999995,-17.90999985,4.840000153
00:3B:13:12:01:3D:4B:F1,left,1665651728,100,-0.130999997,-0.349999994,2.006999969,58.29999924,-328.6000061,21.60000038,2055,2065,52,50,50,50,50,50,-1.179999948,-22.38999939,5.269999981
00:3B:13:12:01:3D:4B:F1,left,1665651728,101,-0.077,-0.041000001,2.444999933,52,-338.3999939,24,0,54,0,0,0,0,0,0,-0.219999999,-26.40999985,5.75
00:3B:13:12:01:3D:4B:F1,left,1665651728,102,0.467999995,-0.275000006,1.657999992,167.3999939,-337.8999939,12.30000019,0,0,0,0,0,0,0,0,1.860000014,-28.28000069,5.989999771
00:3B:13:12:01:3D:4B:F1,left,1665651728,103,0.730000019,-0.583000004,0.416999996,67.40000153,-324.7999878,-30.29999924,0,0,0,0,0,0,0,0,-25.61000061,5.369999886,5.389999866
00:3B:13:12:01:3D:4B:F1,left,1665651728,104,-0.187000006,0.178000003,0.535000026,-21.89999962,-269.7999878,-5,0,0,0,0,0,0,0,0,-21.59000015,-1.850000024,5.289999962
00:3B:13:12:01:3D:4B:F1,left,1665651728,105,0.081,0.112999998,1.164999962,70,-59.29999924,43.59999847,0,0,0,0,0,0,0,0,-17.61000061,-2.329999924,6.159999847
00:3B:13:12:01:3D:4B:F1,left,1665651728,106,0.272000015,0.180999994,0.992999971,-32.5,145.8999939,-79.80000305,0,0,0,0,0,0,0,0,-9.680000305,4.929999828,4.570000172
00:3B:13:12:01:3D:4B:F1,left,1665651728,107,0.688000023,-0.398999989,0.317999989,129.3999939,189,-26.29999924,0,0,0,0,0,0,0,0,-11.52999973,13.18000031,4.050000191
00:3B:13:12:01:3D:4B:F1,left,1665651728,108,0.294999987,-0.116999999,0.439999998,-90.80000305,203.8999939,5.099999905,0,0,0,0,0,0,0,0,-13.48999977,18.80999947,4.150000095
00:3B:13:12:01:3D:4B:F1,left,1665651728,109,0.314999998,-0.263000011,0.527999997,30.29999924,253.6999969,-8.300000191,0,0,0,0,0,0,0,0,-14.23999977,24.29999924,3.99000001
00:3B:13:12:01:3D:4B:F1,left,1665651728,110,0.465999991,-0.186000004,0.730000019,-95.80000305,290.3999939,30.60000038,0,0,0,0,0,0,0,0,-15.96000004,30.26000023,4.599999905
00:3B:13:12:01:3D:4B:F1,left,1665651728,111,0.238000005,-0.057999998,0.852999985,29,312.1000061,-5.199999809,0,0,0,0,0,0,0,0,-14.22999954,34.40000153,4.5
00:3B:13:12:01:3D:4B:F1,left,1665651728,112,0.344000012,-0.128000006,0.888000011,-47.59999847,322.7000122,13,0,0,0,0,0,0,0,0,-13.07999992,34.88000107,4.760000229
00:3B:13:12:01:3D:4B:F1,left,1665651728,113,0.152999997,-0.108000003,0.888000011,13.89999962,310,12.39999962,0,0,0,0,0,0,0,0,-11.03999996,31.65999985,5
00:3B:13:12:01:3D:4B:F1,left,1665651728,114,0.050000001,0.083999999,1.337000012,-91.19999695,268.2999878,21.60000038,0,0,0,0,0,0,0,0,-11.21000004,33.52999878,5.429999828
00:3B:13:12:01:3D:4B:F1,left,1665651728,115,0.123000003,-0.116999999,1.656000018,-35.20000076,253.5,31.29999924,0,0,0,0,0,0,0,0,-11.11999989,35.15999985,6.050000191
00:3B:13:12:01:3D:4B:F1,left,1665651728,116,-0.033,0.101999998,1.919999957,-78.69999695,253,26.79999924,0,0,0,0,0,0,0,0,-11.10999966,36.09000015,6.579999924
00:3B:13:12:01:3D:4B:F1,left,1665651728,117,-0.172999993,-0.164000005,2.130000114,-71.30000305,251.6000061,54.59999847,0,0,0,0,0,0,0,0,-11.71000004,36.54000092,7.670000076
00:3B:13:12:01:3D:4B:F1,left,1665651728,118,-0.605000019,0.234999999,2.469000101,-119.9000015,239.3000031,60.20000076,0,0,0,0,0,0,0,0,-12.14000034,35.81000137,8.869999886
00:3B:13:12:01:3D:4B:F1,left,1665651728,119,-1.231999993,0.347000003,2.631000042,-107.6999969,225.1000061,54.79999924,0,0,0,0,0,0,0,0,-12.10000038,33.77999878,9.960000038
00:3B:13:12:01:3D:4B:F1,left,1665651728,120,-2.042999983,0.082999997,2.380000114,22.70000076,241.8999939,-3,0,0,0,0,0,0,0,0,-10.27999973,30.68000031,9.899999619
00:3B:13:12:01:3D:4B:F1,left,1665651728,121,-2.746999979,0.075999998,1.13499999,26.89999962,216.5,-1.399999976,0,0,0,0,0,0,0,0,-8.390000343,24.75,9.880000114
00:3B:13:12:01:3D:4B:F1,left,1665651728,122,-2.967999935,0.289000005,0.602999985,-72.5,134.6999969,49.20000076,0,0,0,0,0,0,0,0,-6.289999962,16.95999908,10.85999966
00:3B:13:12:01:3D:4B:F1,left,1665651728,123,-2.571000099,0.441000015,1.350999951,-143.3000031,16.20000076,51.5,0,0,0,0,0,0,0,0,-6.420000076,9.43999958,11.89000034
00:3B:13:12:01:3D:4B:F1,left,1665651728,124,-2.046999931,0.648999989,1.863000035,-12.19999981,-58.29999924,9.699999809,0,0,0,0,0,0,0,0,-4.070000172,2.839999914,12.07999992
00:3B:13:12:01:3D:4B:F1,left,1665651728,125,0.229000002,3.078000069,1.972000003,167.6000061,-226.5,73.19999695,0,0,0,0,0,0,0,0,5.079999924,-1.159999967,13.53999996
00:3B:13:12:01:3D:4B:F1,left,1665651728,126,1.922000051,-0.574000001,-2.082999945,-106.3000031,-183.8000031,-221.1000061,52,52,52,50,52,52,343,2502,-13.78999996,-0.180000007,9.119999886
00:3B:13:12:01:3D:4B:F1,left,1665651728,127,-0.856000006,1.08099997,2.191999912,387.2000122,-219.8000031,-15.60000038,52,52,52,52,52,52,2899,2979,-2.809999943,-6.039999962,8.81000042
00:3B:13:12:01:3D:4B:F1,left,1665651728,128,-0.365999997,-0.685000002,0.862999976,-318.7999878,-137,-112.6999969,50,52,52,52,52,52,3044,3129,-12.10000038,-9.729999542,6.559999943
00:3B:13:12:01:3D:4B:F1,left,1665651729,129,-0.005,0.354999989,1.886999965,294.2000122,-93.69999695,164.3999939,50,52,52,52,52,52,3078,3199,-4.53000021,-10.44999981,9.840000153
00:3B:13:12:01:3D:4B:F1,left,1665651729,130,-0.151999995,-1.047000051,0.405000001,-208.3999939,-65.69999695,-95.59999847,50,52,52,52,52,52,3112,3181,-14.69999981,-11.35000038,7.929999828
00:3B:13:12:01:3D:4B:F1,left,1665651729,131,-0.029999999,0.368000001,1.980000019,217.6000061,-61.90000153,60,50,52,52,50,52,50,3164,3199,-8.260000229,-11.39999962,9.130000114
00:3B:13:12:01:3D:4B:F1,left,1665651729,132,-0.462000012,-0.595000029,0.358999997,-135.8000031,-14.5,-78.30000305,52,52,52,52,52,52,3181,3199,-15.76000023,-13.88000011,7.570000172
00:3B:13:12:01:3D:4B:F1,left,1665651729,133,0.118000001,0.509000003,1.582000017,155,-8.600000381,-33.79999924,52,52,52,52,52,52,3164,3217,-9.609999657,-12.22999954,6.900000095
00:3B:13:12:01:3D:4B:F1,left,1665651729,134,0.179000005,-0.023,1.228999972,-219.6000061,-9.899999619,47.59999847,52,52,52,50,52,52,3164,3199,-12.69999981,-10.34000015,7.849999905
00:3B:13:12:01:3D:4B:F1,left,1665651729,135,-0.033,-0.351999998,0.79400003,207.5,-11.10000038,3,50,52,52,52,52,52,3129,3181,-10.07999992,-9.720000267,7.909999847
00:3B:13:12:01:3D:4B:F1,left,1665651729,136,-0.048999999,0.264999986,1.286999941,-163.3000031,-3.799999952,11.60000038,52,52,52,50,52,84,3028,3146,-10.84000015,-9.020000458,8.140000343
00:3B:13:12:01:3D:4B:F1,left,1665651729,137,0.017000001,-0.479999989,0.727999985,146.6999969,-4,-6.300000191,52,52,52,52,52,1145,2979,2979,-10.44999981,-8.069999695,8.020000458
00:3B:13:12:01:3D:4B:F1,left,1665651729,138,-0.007,0.289999992,1.292000055,-121.9000015,-2.799999952,15,52,52,52,52,52,1714,2899,2946,-10.31999969,-7.329999924,8.319999695
00:3B:13:12:01:3D:4B:F1,left,1665651729,139,-0.003,-0.449999988,0.713,100.8000031,-3.299999952,0.200000003,52,52,52,52,52,1936,2807,2915,-10.69999981,-6.670000076,8.319999695
00:3B:13:12:01:3D:4B:F1,left,1665651729,140,0.028999999,0.211999997,1.274000049,-82,-4.900000095,11.5,52,54,52,52,52,2294,2720,2868,-10.15999985,-5.949999809,8.550000191
00:3B:13:12:01:3D:4B:F1,left,1665651729,141,0.001,-0.416999996,0.745999992,8.199999809,-6.199999809,12.30000019,52,52,52,52,54,3235,2635,2793,-11.92000008,-5.449999809,8.789999962
00:3B:13:12:01:3D:4B:F1,left,1665651729,142,-0.002,0.187999994,1.218000054,3.200000048,-6.800000191,3.900000095,52,52,52,52,52,3757,2489,2677,-9.789999962,-5.03000021,8.859999657
00:3B:13:12:01:3D:4B:F1,left,1665651729,143,0.001,-0.314999998,0.838,0,-7.699999809,8.699999809,52,52,52,52,52,3894,1571,2608,-10.86999989,-4.650000095,9.029999733
00:3B:13:12:01:3D:4B:F1,left,1665651729,144,-0.005,0.101000004,1.159000039,16.5,-7.900000095,7.199999809,50,68,56,50,50,3894,50,1747,-8.979999542,-4.340000153,9.170000076
00:3B:13:12:01:3D:4B:F1,left,1665651729,145,0.005,-0.214000002,0.897000015,1.700000048,-7.699999809,11.39999962,52,1106,1365,213,52,2451,50,52,-10.28999996,-3.039999962,9.390000343
00:3B:13:12:01:3D:4B:F1,left,1665651729,146,-0.015,0.075000003,1.116000056,9.100000381,-8.300000191,4.099999905,52,1426,1648,976,52,2096,52,52,-8.710000038,-2.950000048,9.470000267
00:3B:13:12:01:3D:4B:F1,left,1665651729,147,0.018999999,-0.181999996,0.963,1.200000048,-11,14.10000038,52,1468,1648,1594,52,1927,52,52,-9.68999958,-1.019999981,9.75
00:3B:13:12:01:3D:4B:F1,left,1665651729,148,0.017000001,0.035,1.146000028,-15.10000038,-19.39999962,9.600000381,52,1533,1871,1808,52,1226,52,52,-8.81000042,-1.169999957,9.93999958
00:3B:13:12:01:3D:4B:F1,left,1665651729,149,0.061999999,0.041999999,1.248999953,-25.70000076,-35,16.20000076,52,1817,2149,2203,52,52,52,52,-8.18999958,-1.389999986,10.26000023
00:3B:13:12:01:3D:4B:F1,left,1665651729,150,0.037999999,-0.033,1.228999972,5.400000095,-52,33.70000076,52,1835,2170,2271,52,52,52,52,-7.429999828,-2,10.93000031
00:3B:13:12:01:3D:4B:F1,left,1665651729,151,0.119000003,-0.029999999,1.274000049,-30.89999962,-75,25.39999962,52,1808,2214,2294,52,52,52,52,-7.369999886,-2.609999895,11.43000031
00:3B:13:12:01:3D:4B:F1,left,1665651729,152,0.079999998,0.002,1.327999949,-15.89999962,-99.90000153,26.29999924,991,1511,1927,1927,52,52,52,52,-6.900000095,-3.789999962,11.94999981
00:3B:13:12:01:3D:4B:F1,left,1665651729,153,0.140000001,-0.184,1.402999997,-23.39999962,-135.3999939,17.89999962,1238,1475,1871,1880,52,52,52,52,-7.369999886,-5.269999981,12.30000019
00:3B:13:12:01:3D:4B:F1,left,1665651729,154,0.207000002,-0.028999999,1.532999992,-39.09999847,-173,26.70000076,1405,1447,1835,1853,52,52,52,52,-7.440000057,-7.079999924,12.82999992
00:3B:13:12:01:3D:4B:F1,left,1665651729,155,0.149000004,-0.330000013,1.531999946,10.30000019,-236.8999939,0,1461,1412,1808,1756,52,52,52,52,-7.730000019,-10.07999992,12.82999992
00:3B:13:12:01:3D:4B:F1,left,1665651729,156,0.39199999,0.025,1.952000022,-120.9000015,-291.2000122,9.5,1540,1398,1594,1648,52,52,52,52,-9.050000191,-13.17000008,13.02000046
00:3B:13:12:01:3D:4B:F1,left,1665651729,157,0,-0.135000005,1.922000051,-30.5,-344.1000061,12.5,1899,1319,966,74,52,52,52,52,-9.090000153,-18.04000092,13.27000046
00:3B:13:12:01:3D:4B:F1,left,1665651729,158,-0.152999997,-0.039999999,2.516000032,-127.5,-389.2999878,29.5,1656,0,0,0,50,0,0,50,-10.56000042,-23.57999992,13.85999966
00:3B:13:12:01:3D:4B:F1,left,1665651729,159,-0.441000015,-0.077,2.102999926,-11.5,-377.3999939,60.59999847,0,0,0,0,0,0,0,0,-9.920000076,-29.19000053,15.06999969
00:3B:13:12:01:3D:4B:F1,left,1665651729,160,0.442999989,-0.381000012,2.476000071,-94.59999847,-355.1000061,31.39999962,0,0,0,0,0,0,0,0,-11.5,-31.64999962,15.68999958
00:3B:13:12:01:3D:4B:F1,left,1665651729,161,1.853999972,-1.537999988,1.539000034,185.8999939,-359.7999878,108.9000015,0,0,0,0,0,0,0,0,-11.5,-30.90999985,17.86000061
00:3B:13:12:01:3D:4B:F1,left,1665651729,162,-0.43900001,1.105000019,1.24000001,48.40000153,-280.7999878,-126.0999985,0,0,0,0,0,0,0,0,-5.309999943,-34.34000015,15.34000015
00:3B:13:12:01:3D:4B:F1,left,1665651729,163,0.726999998,-0.349000007,0.136000007,178.1999969,83.40000153,83.59999847,0,0,0,0,0,0,0,0,-8.43999958,-23.12999916,17.01000023
00:3B:13:12:01:3D:4B:F1,left,1665651729,164,0.532999992,0.071999997,1.18599999,-130,180.5,47.90000153,0,0,0,0,0,0,0,0,-9.579999924,-15.14999962,17.95999908
00:3B:13:12:01:3D:4B:F1,left,1665651729,165,0.519999981,-0.699000001,0.547999978,158.3000031,191.3999939,22,0,0,0,0,0,0,0,0,-29.15999985,9.5,18.39999962
00:3B:13:12:01:3D:4B:F1,left,1665651729,166,0.335000008,0,0.614000022,-53.29999924,213.1000061,73.59999847,0,0,0,0,0,0,0,0,-27.19000053,15.23999977,19.87000084
00:3B:13:12:01:3D:4B:F1,left,1665651729,167,0.178000003,-0.305000007,0.328000009,148.3999939,281.8999939,39.40000153,0,0,0,0,0,0,0,0,-26.09000015,20.95000076,20.64999962
00:3B:13:12:01:3D:4B:F1,left,1665651729,168,0.533999979,-0.195999995,0.754000008,-60,322.5,67.80000305,0,0,0,0,0,0,0,0,-23.46999931,29.5,22
00:3B:13:12:01:3D:4B:F1,left,1665651729,169,0.326000005,-0.521000028,0.79400003,100.4000015,329.6000061,27.89999962,0,0,0,0,0,0,0,0,-27.37000084,27.51000023,22.54999924
00:3B:13:12:01:3D:4B:F1,left,1665651729,170,0.289999992,-0.101000004,1.106999993,-29.29999924,329,-0.400000006,0,0,0,0,0,0,0,0,-25.67000008,32.13999939,22.54999924
00:3B:13:12:01:3D:4B:F1,left,1665651729,171,0.163000003,-0.492000014,0.963,48.40000153,331.5,14.80000019,0,0,0,0,0,0,0,0,-25.40999985,29.70999908,22.84000015
00:3B:13:12:01:3D:4B:F1,left,1665651729,172,0.082999997,-0.245000005,1.449000001,-75.30000305,317.8999939,4.699999809,0,0,0,0,0,0,0,0,-25.17000008,32.77000046,22.93000031
00:3B:13:12:01:3D:4B:F1,left,1665651729,173,0.028999999,-0.584999979,1.697000027,-21.29999924,289,24.29999924,0,0,0,0,0,0,0,0,-24.93000031,34.77999878,23.40999985
00:3B:13:12:01:3D:4B:F1,left,1665651729,174,-0.108000003,-0.44600001,2.33100009,-122.8000031,276.2999878,33,0,0,0,0,0,0,0,0,-25.71999931,36,24.06999969
00:3B:13:12:01:3D:4B:F1,left,1665651729,175,-0.474999994,-0.140000001,2.38499999,-92,297.3999939,22,0,0,0,0,0,0,0,0,-25.12999916,36.61999893,24.51000023
00:3B:13:12:01:3D:4B:F1,left,1665651729,176,-1.141000032,0.236000001,2.654000044,-129.3000031,303.6000061,1.899999976,0,0,0,0,0,0,0,0,-24.43000031,36.09999847,24.54000092
00:3B:13:12:01:3D:4B:F1,left,1665651729,177,-1.355000019,1.286999941,2.809000015,208.5,209,-91.59999847,0,0,0,0,0,0,0,0,-15.77000046,33.88000107,22.70999908
00:3B:13:12:01:3D:4B:F1,left,1665651729,178,-3.322000027,-0.389999986,1.690000057,-397.8999939,242.6000061,-33.09999847,0,0,0,0,0,0,0,0,-22.63999939,28.61000061,22.04999924
00:3B:13:12:01:3D:4B:F1,left,1665651730,179,-3.263000011,0.338,1.279999971,330.1000061,122.5,-83.69999695,0,0,0,0,0,0,0,0,-12.94999981,21.15999985,20.37999916
00:3B:13:12:01:3D:4B:F1,left,1665651730,180,-3.197999954,0.439999998,1.929999948,-420.1000061,34.59999847,75.59999847,0,0,0,0,0,0,0,0,-17.93000031,13.84000015,21.88999939
00:3B:13:12:01:3D:4B:F1,left,1665651730,181,-1.985000014,1.067000031,2.246999979,677.5999756,-299.1000061,-105.5999985,0,0,0,0,0,0,0,0,-1.399999976,3.210000038,19.78000069
00:3B:13:12:01:3D:4B:F1,left,1665651730,182,1.911999941,-1.574000001,0.509000003,-665.7999878,-357.2999878,240.6000061,50,52,50,52,52,50,1799,2581,-20.44000053,1.370000005,24.59000015
00:3B:13:12:01:3D:4B:F1,left,1665651730,183,-1.572000027,-1.967000008,0.606000006,571.5,-199.6999969,-420,52,52,52,50,52,52,2915,2962,-15.39000034,-6.090000153,16.19000053
00:3B:13:12:01:3D:4B:F1,left,1665651730,184,0.244000003,0.342000008,2.924000025,-734.7999878,-163.3999939,147.8999939,52,52,52,50,52,52,3028,3011,-26.39999962,-7.940000057,19.13999939
00:3B:13:12:01:3D:4B:F1,left,1665651730,185,-0.555000007,-1.337000012,0.583000004,696.2999878,-86.59999847,77.80000305,52,52,52,52,52,52,3028,2979,-17.87000084,-10.77999973,20.69000053
00:3B:13:12:01:3D:4B:F1,left,1665651730,186,0.284000009,0.017999999,1.893000007,-550.2999878,-76.90000153,-45.20000076,50,52,52,50,52,52,3011,2962,-25.92000008,-10.22000027,19.79000092
00:3B:13:12:01:3D:4B:F1,left,1665651730,187,-0.442999989,-1.18900001,0.686999977,545.0999756,-29,-49.40000153,52,52,52,50,52,52,3028,3044,-19.51000023,-11.5,18.80999947
00:3B:13:12:01:3D:4B:F1,left,1665651730,188,0,0.50999999,1.697000027,-397.3999939,-24.89999962,-40.59999847,52,52,52,50,52,50,3044,3112,-23.03000069,-10.78999996,18
00:3B:13:12:01:3D:4B:F1,left,1665651730,189,0.016000001,-0.823000014,0.592000008,405.3999939,-9.300000191,21.29999924,50,52,52,50,52,52,3095,3146,-34.59999847,-5.03000021,18.42000008
00:3B:13:12:01:3D:4B:F1,left,1665651730,190,-0.082000002,1.276000023,2.022000074,-302.1000061,-7.599999905,5.900000095,50,52,52,50,52,50,3078,3129,-33.34999847,-4.849999905,18.53000069
00:3B:13:12:01:3D:4B:F1,left,1665651730,191,-0.093999997,-1.144999981,0.086999997,172.3000031,-0.5,-22.89999962,52,52,52,50,52,50,3061,3146,-35.47999954,-4.829999924,18.07999992
00:3B:13:12:01:3D:4B:F1,left,1665651730,192,0.108999997,0.973999977,1.822000027,-119,-4.099999905,30.29999924,50,52,52,52,52,60,3044,2995,-31.26000023,-4.110000134,18.68000031
00:3B:13:12:01:3D:4B:F1,left,1665651730,193,-0.090999998,-0.912999988,0.287999988,103.6999969,-3.299999952,3.200000048,52,52,52,52,52,485,2979,2962,-42.18000031,-4.539999962,18.73999977
00:3B:13:12:01:3D:4B:F1,left,1665651730,194,0.030999999,0.765999973,1.626000047,-73.40000153,-2,2.900000095,52,78,52,52,52,624,2884,2915,-36.75,-4.019999981,18.79000092
00:3B:13:12:01:3D:4B:F1,left,1665651730,195,-0.01,-0.718999982,0.448000014,60.40000153,-3.400000095,18.5,52,259,52,52,52,620,2778,2868,-37.79999924,-3.730000019,19.15999985
00:3B:13:12:01:3D:4B:F1,left,1665651730,196,-0.009,0.573000014,1.48300004,-54.70000076,-1.700000048,9.100000381,52,806,52,50,52,96,2649,2663,-32.88000107,-3.410000086,19.34000015
00:3B:13:12:01:3D:4B:F1,left,1665651730,197,0.02,-0.393999994,0.721000016,38.29999924,-3.799999952,17.39999962,52,1447,1447,52,54,84,2004,2305,-31.77000046,-2.99000001,19.68000031
00:3B:13:12:01:3D:4B:F1,left,1665651730,198,-0.026000001,0.351999998,1.25,19,-3.099999905,6,50,1899,1540,52,52,216,52,143,-26.67000008,-2.849999905,19.79999924
00:3B:13:12:01:3D:4B:F1,left,1665651730,199,0.01,-0.333000004,0.744000018,-34.09999847,-5.599999905,8.100000381,50,1975,1656,50,52,282,50,50,-27.02000046,-2.589999914,19.95999908
00:3B:13:12:01:3D:4B:F1,left,1665651730,200,-0.052999999,0.26699999,1.24000001,-16.20000076,-4.599999905,0,50,1955,2106,50,52,365,52,52,-23.38999939,-2.650000095,19.95999908
00:3B:13:12:01:3D:4B:F1,left,1665651730,201,0.01,-0.316000015,0.841000021,9,-6.300000191,22.39999962,50,1955,2170,130,52,388,52,52,-22.94000053,-2.420000076,20.39999962
00:3B:13:12:01:3D:4B:F1,left,1665651730,202,-0.018999999,0.105999999,1.205000043,-29.89999962,-7,8.600000381,52,1689,1965,1563,52,368,52,52,-20.67000008,-2.390000105,20.56999969
00:3B:13:12:01:3D:4B:F1,left,1665651730,203,0.005,-0.216999993,0.917999983,30.39999962,-17.60000038,36.79999924,52,1817,2117,1899,52,154,52,52,-18.03000069,-1.820000052,21.29999924
00:3B:13:12:01:3D:4B:F1,left,1665651730,204,0.028000001,0.291999996,1.30400002,-66.69999695,-32.29999924,23.70000076,52,1871,2106,1946,52,230,52,52,-16.15999985,-2.089999914,21.77000046
00:3B:13:12:01:3D:4B:F1,left,1665651730,205,0.052999999,-0.101000004,1.105999947,25.60000038,-51.09999847,41.09999847,52,1936,2181,2149,52,52,52,52,-14.60000038,-2.519999981,22.59000015
00:3B:13:12:01:3D:4B:F1,left,1665651730,206,0.128000006,0.046999998,1.338999987,-63.5,-74,14.89999962,50,1975,2214,2149,52,52,52,52,-14.07999992,-3.049999952,22.87999916
00:3B:13:12:01:3D:4B:F1,left,1665651730,207,0.064000003,0.043000001,1.292000055,1.5,-100,18.20000076,1047,1656,1917,1889,52,52,52,52,-12.44999981,-4.260000229,23.23999977
00:3B:13:12:01:3D:4B:F1,left,1665651730,208,0.216999993,0.032000002,1.457000017,-50.5,-130.8999939,4,1332,1609,1871,1844,52,52,52,52,-11.97999954,-5.329999924,23.31999969
00:3B:13:12:01:3D:4B:F1,left,1665651730,209,0.149000004,-0.112000003,1.638000011,14.80000019,-166.8000031,-15.80000019,1433,1586,1835,1817,52,52,52,52,-10.90999985,-7.269999981,23.01000023
00:3B:13:12:01:3D:4B:F1,left,1665651730,210,0.175999999,-0.469999999,1.628999949,3,-218,7,1482,1540,1826,1673,52,52,52,54,-11.36999989,-9.869999886,23.14999962
00:3B:13:12:01:3D:4B:F1,left,1665651730,211,0.351000011,-0.104999997,2.019999981,-12.39999962,-274.5,17.10000038,1648,1578,1765,1068,52,52,52,54,-10.73999977,-12.82999992,23.48999977
00:3B:13:12:01:3D:4B:F1,left,1665651730,212,0.134000003,-0.490999997,2.084000111,33.40000153,-346.1000061,-1.799999952,1955,1826,1511,50,52,52,52,52,-10.39000034,-17.40999985,23.45999908
00:3B:13:12:01:3D:4B:F1,left,1665651730,213,-0.140000001,-0.059999999,2.50999999,-23.10000038,-395.2999878,15.5,2192,1633,50,50,50,50,50,50,-9.899999619,-23.09000015,23.77000046
00:3B:13:12:01:3D:4B:F1,left,1665651730,214,-0.182999998,-0.508000016,2.480999947,8.100000381,-401,38.20000076,0,0,0,0,0,0,0,0,-9.920000076,-28.40999985,24.53000069
00:3B:13:12:01:3D:4B:F1,left,1665651730,215,0.740999997,0.017000001,2.513999939,42.40000153,-383.3999939,59.90000153,0,0,0,0,0,0,0,0,-8.130000114,-30.81999969,25.71999931
00:3B:13:12:01:3D:4B:F1,left,1665651730,216,1.817000031,-1.294999957,0.593999982,199.1000061,-371.3999939,62.5,0,0,0,0,0,0,0,0,-10.27000046,-29.21999931,26.96999931
00:3B:13:12:01:3D:4B:F1,left,1665651730,217,-0.067000002,-0.028000001,0.617999971,-114.9000015,-344.1000061,-167.5,0,0,0,0,0,0,0,0,-11.56000042,-33.09999847,23.62000084
00:3B:13:12:01:3D:4B:F1,left,1665651730,218,0.157000005,0.597000003,0.805000007,130.3999939,-77.19999695,140.3000031,0,0,0,0,0,0,0,0,13.80000019,-12.85999966,26.42000008
00:3B:13:12:01:3D:4B:F1,left,1665651730,219,0.282999992,0.029999999,1.184999943,-161.5,199.6000061,-32.29999924,0,0,0,0,0,0,0,0,9.649999619,-6.639999866,25.78000069
00:3B:13:12:01:3D:4B:F1,left,1665651730,220,0.635999978,-0.363999993,0.615999997,182.1999969,251.6000061,5.400000095,0,0,0,0,0,0,0,0,0.119999997,11.35999966,25.87999916
00:3B:13:12:01:3D:4B:F1,left,1665651730,221,0.389999986,-0.338999987,0.395000011,-134.3000031,288.5,48.79999924,0,0,0,0,0,0,0,0,-6.360000134,19.10000038,26.85000038
00:3B:13:12:01:3D:4B:F1,left,1665651730,222,0.382999986,0.007,0.708000004,70.19999695,340.6000061,-1.600000024,0,0,0,0,0,0,0,0,-4.400000095,26.15999985,26.81999969
00:3B:13:12:01:3D:4B:F1,left,1665651730,223,0.545000017,-0.388999999,0.894999981,-103.6999969,350.7999878,43.90000153,0,0,0,0,0,0,0,0,-8.170000076,32.77000046,27.69000053
00:3B:13:12:01:3D:4B:F1,left,1665651730,224,0.187000006,-0.02,1.088000059,108.5999985,348.3999939,-20.70000076,0,0,0,0,0,0,0,0,-5.5,36.72999954,27.28000069
00:3B:13:12:01:3D:4B:F1,left,1665651730,225,0.324000001,-0.361999989,0.739000022,-38.5,332.6000061,21.5,0,0,0,0,0,0,0,0,-8.25,41.18999863,27.70999908
00:3B:13:12:01:3D:4B:F1,left,1665651730,226,0.136000007,-0.282000005,1.108999968,48.90000153,313.1000061,-1.200000048,0,0,0,0,0,0,0,0,-7.96999979,43.38000107,27.69000053
00:3B:13:12:01:3D:4B:F1,left,1665651730,227,0.163000003,-0.131999999,1.562999964,-108.1999969,303.5,4,0,0,0,0,0,0,0,0,-9.590000153,45.09000015,27.77000046
00:3B:13:12:01:3D:4B:F1,left,1665651730,228,0.162,-0.372999996,1.817999959,6.900000095,295.6000061,5.5,0,0,0,0,0,0,0,0,-9.670000076,46.38999939,27.87999916
00:3B:13:12:01:3D:4B:F1,left,1665651730,229,-0.018999999,-0.393000007,2.29399991,-109.5999985,286.7000122,16.89999962,0,0,0,0,0,0,0,0,-11.64000034,46.86000061,28.20999908
00:3B:13:12:01:3D:4B:F1,left,1665651731,230,-0.629000008,-0.064000003,2.469000101,-79,284.1000061,9.399999619,0,0,0,0,0,0,0,0,-12.03999996,45.84999847,28.38999939
00:3B:13:12:01:3D:4B:F1,left,1665651731,231,-1.368000031,-0.114,2.786000013,-129.8999939,268.6000061,16.70000076,0,0,0,0,0,0,0,0,-13.39999962,43.47999954,28.71999931
00:3B:13:12:01:3D:4B:F1,left,1665651731,232,-2.371000051,0.305999994,2.400000095,-128.8000031,230.8999939,-15.10000038,0,0,0,0,0,0,0,0,-13.64000034,38.83000183,28.42000008
00:3B:13:12:01:3D:4B:F1,left,1665651731,233,-3.078000069,0.356999993,1.366000056,-197.6000061,229,-46.29999924,0,0,0,0,0,0,0,0,-14.35999966,32.52999878,27.5
00:3B:13:12:01:3D:4B:F1,left,1665651731,234,-3.167999983,0.469000012,0.89200002,53.59999847,125.5999985,-49.40000153,0,0,0,0,0,0,0,0,-9.180000305,24.29999924,26.52000046
00:3B:13:12:01:3D:4B:F1,left,1665651731,235,-2.84800005,-0.028000001,3.625999928,-381.7999878,5.699999809,49.70000076,0,0,0,0,0,0,0,0,-15.17000008,18.14999962,27.51000023
00:3B:13:12:01:3D:4B:F1,left,1665651731,236,-2.394999981,-0.068000004,2.207999945,603.0999756,-260.8999939,-128.6000061,0,0,0,0,0,0,0,0,-2.970000029,6.909999847,24.94000053
00:3B:13:12:01:3D:4B:F1,left,1665651731,237,1.773000002,-0.460999995,0.430999994,-612.5,-337.2000122,175.6999969,52,52,50,50,52,50,2581,2734,-18.38999939,7.190000057,28.45000076
00:3B:13:12:01:3D:4B:F1,left,1665651731,238,-1.174999952,0.448000014,2.278000116,587.9000244,-215.6999969,-470.1000061,52,52,52,52,52,52,2979,2979,-4.860000134,-0.090000004,19.04999924
00:3B:13:12:01:3D:4B:F1,left,1665651731,239,0.272000015,0.810000002,2.849999905,-582.9000244,-187.8000031,308.1000061,52,52,52,52,52,52,3044,3129,-13.27000046,-2.930000067,25.20999908
00:3B:13:12:01:3D:4B:F1,left,1665651731,240,-0.27700001,-1.934999943,0.460999995,634,-105.6999969,44.20000076,52,52,52,50,52,50,3028,3112,-8.18999958,-5.320000172,26.09000015
00:3B:13:12:01:3D:4B:F1,left,1665651731,241,-0.137999997,0.801999986,2.030999899,-495.1000061,-64.59999847,-161.6999969,50,52,52,52,52,52,3028,3112,-14.11999989,-6.309999943,22.86000061
00:3B:13:12:01:3D:4B:F1,left,1665651731,242,0.064000003,-1.488000035,0.416999996,512,-40.59999847,77.40000153,52,52,52,50,52,52,3044,3129,-10.92000008,-6.170000076,24.39999962
00:3B:13:12:01:3D:4B:F1,left,1665651731,243,-0.532000005,1.245000005,1.792999983,-378.7999878,-9.199999809,-40.79999924,52,52,52,52,52,52,3095,3129,-13.15999985,-7.079999924,23.59000015
00:3B:13:12:01:3D:4B:F1,left,1665651731,244,0.199000001,-1.215000033,0.382999986,362.8999939,5,-24.39999962,52,52,52,50,52,50,3044,3146,-12.56000042,-5.389999866,23.11000061
00:3B:13:12:01:3D:4B:F1,left,1665651731,245,0.07,0.754000008,1.720999956,-290.3999939,-12.69999981,66.5,52,52,52,50,52,64,3028,3112,-14.14999962,-4.860000134,24.44000053
00:3B:13:12:01:3D:4B:F1,left,1665651731,246,-0.103,-1.138000011,0.375999987,257.2000122,2.799999952,-25.29999924,52,52,52,50,54,1392,3011,2979,-15.27999973,-4.820000172,23.94000053
00:3B:13:12:01:3D:4B:F1,left,1665651731,247,0.032000002,0.915000021,1.784999967,-72.59999847,-0.200000003,-3.400000095,52,52,52,52,52,1533,2946,2946,-12.34000015,-4.239999771,23.87999916
00:3B:13:12:01:3D:4B:F1,left,1665651731,248,0.026000001,-0.940999985,0.338999987,53,-5.199999809,21.70000076,52,52,52,52,52,1739,2838,2915,-40.72999954,-1.419999957,24.30999947
00:3B:13:12:01:3D:4B:F1,left,1665651731,249,-0.052000001,0.723999977,1.574000001,-44.79999924,-2.099999905,-1.5,52,94,52,52,52,1862,2734,2822,-34.97999954,-1.480000019,24.28000069
00:3B:13:12:01:3D:4B:F1,left,1665651731,250,0.012,-0.688000023,0.514999986,26.79999924,-4.199999809,13.89999962,52,599,1281,52,52,1540,2528,2621,-36.31999969,-1.320000052,24.54999924
00:3B:13:12:01:3D:4B:F1,left,1665651731,251,-0.016000001,0.479000002,1.416000009,-36,-2.200000048,8.600000381,52,1257,1412,52,52,1440,411,1756,-31.45999908,-1.279999971,24.71999931
00:3B:13:12:01:3D:4B:F1,left,1665651731,252,-0.014,-0.497999996,0.640999973,23.79999924,-2.599999905,12.5,52,1730,1489,52,50,1371,52,52,-31.67000008,-1.289999962,24.96999931
00:3B:13:12:01:3D:4B:F1,left,1665651731,253,-0.008,0.219999999,1.296000004,-41.09999847,-3.700000048,6.300000191,52,1782,1665,52,52,1345,52,52,-28.27000046,-1.25,25.09000015
00:3B:13:12:01:3D:4B:F1,left,1665651731,254,0.018999999,-0.319000006,0.818000019,-16.60000038,-5.300000191,14.89999962,52,1756,1889,259,52,1191,52,52,-27.87000084,-1.090000033,25.37999916
00:3B:13:12:01:3D:4B:F1,left,1665651731,255,-0.039000001,0.164000005,1.20599997,-7.400000095,-4.300000191,0.200000003,52,1641,1808,1074,52,849,52,52,-24.43000031,-1.230000019,25.37999916
00:3B:13:12:01:3D:4B:F1,left,1665651731,0,0.007,-0.268999994,0.873000026,23.70000076,-6.900000095,24.5,52,1739,1965,1648,52,121,52,52,-21.89999962,-0.819999993,25.87000084
00:3B:13:12:01:3D:4B:F1,left,1665651731,1,-0.003,-0.011,1.133999944,-25.79999924,-10,11.80000019,52,1747,2138,1880,52,52,52,52,-20.21999931,-0.930000007,26.10000038
00:3B:13:12:01:3D:4B:F1,left,1665651731,2,0.032000002,-0.008,1.118000031,8.5,-17.89999962,28.70000076,52,1790,2159,2024,52,52,52,52,-18.07999992,-0.980000019,26.67000008
00:3B:13:12:01:3D:4B:F1,left,1665651731,3,0.02,0.061000001,1.121999979,-11.30000019,-32.09999847,29.39999962,52,1835,2159,2138,52,52,52,52,-16.14999962,-1.350000024,27.25
00:3B:13:12:01:3D:4B:F1,left,1665651731,4,0.081,-0.030999999,1.166000009,-17.5,-45,19.60000038,52,1899,2159,2237,52,52,52,52,-15,-1.620000005,27.63999939
00:3B:13:12:01:3D:4B:F1,left,1665651731,5,0.034000002,-0.014,1.253999949,-23.70000076,-64,9,52,1889,2203,2225,52,52,52,52,-13.97999954,-2.450000048,27.81999969
00:3B:13:12:01:3D:4B:F1,left,1665651731,6,0.090999998,-0.002,1.25999999,-22.5,-87,16.29999924,867,1625,1946,1917,52,52,52,52,-12.98999977,-3.349999905,28.13999939
00:3B:13:12:01:3D:4B:F1,left,1665651731,7,0.061999999,0.004,1.322999954,-19.60000038,-109.5999985,-5.400000095,1106,1586,1899,1880,52,52,52,52,-12.02000046,-4.710000038,28.04000092
00:3B:13:12:01:3D:4B:F1,left,1665651731,8,0.086000003,-0.114,1.388000011,-8.100000381,-136.1000061,7,1392,1526,1835,1835,54,52,52,52,-11.43000031,-6.329999924,28.18000031
00:3B:13:12:01:3D:4B:F1,left,1665651731,9,0.149000004,-0.204999998,1.587000012,-13.69999981,-174.8000031,-0.200000003,1447,1447,1826,1808,52,52,52,52,-11.26000023,-8.300000191,28.18000031
00:3B:13:12:01:3D:4B:F1,left,1665651731,10,0.126000002,-0.370999992,1.48300004,7,-220.8000031,24.79999924,1526,1433,1799,1586,52,52,52,52,-11.40999985,-10.96000004,28.67000008
00:3B:13:12:01:3D:4B:F1,left,1665651731,11,0.240999997,0.032000002,1.953999996,-33.09999847,-272.8999939,8.899999619,1705,1482,1633,845,52,52,52,52,-10.76000023,-14.06000042,28.84000015
00:3B:13:12:01:3D:4B:F1,left,1665651731,12,0.027000001,-0.256999999,1.906999946,-62.29999924,-337.8999939,0,2294,1609,50,50,52,50,52,52,-11.56000042,-18.63999939,28.84000015
00:3B:13:12:01:3D:4B:F1,left,1665651731,13,-0.160999998,-0.046,2.421000004,-25.70000076,-378.5,44.90000153,2581,50,50,50,50,0,50,50,-10.97000027,-23.95999908,29.72999954
00:3B:13:12:01:3D:4B:F1,left,1665651731,14,-0.324999988,-0.028000001,2.242000103,-74.59999847,-371.7999878,36.40000153,0,0,0,0,0,0,0,0,-11.27999973,-29.06999969,30.45000076
00:3B:13:12:01:3D:4B:F1,left,1665651731,15,0.638999999,-0.179000005,2.194999933,36.59999847,-352.7000122,54.29999924,0,0,0,0,0,0,0,0,-9.960000038,-30.87999916,31.53000069
00:3B:13:12:01:3D:4B:F1,left,1665651731,16,1.796000004,-1.100999951,0.801999986,143.3999939,-350.2999878,91.69999695,0,0,0,0,0,0,0,0,-11.77999973,-28.79999924,33.36000061
00:3B:13:12:01:3D:4B:F1,left,1665651731,17,-0.090999998,-0.293000013,1.498000026,5.300000191,-272.2999878,-151.3000031,0,0,0,0,0,0,0,0,-11.60999966,-31.14999962,30.34000015
00:3B:13:12:01:3D:4B:F1,left,1665651731,18,0.316000015,0.115000002,0.142000005,213.8999939,-65.69999695,110.9000015,0,0,0,0,0,0,0,0,-2.700000048,-23.20999908,32.54999924
00:3B:13:12:01:3D:4B:F1,left,1665651731,19,0.298000008,0.208000004,0.838,-132.1000061,140,60.09999847,0,0,0,0,0,0,0,0,0.439999998,-8.569999695,33.75
00:3B:13:12:01:3D:4B:F1,left,1665651731,20,0.547999978,-0.532000005,0.646000028,90.30000305,228.5,16.89999962,0,0,0,0,0,0,0,0,-18.61000061,14.60000038,34.08000183
00:3B:13:12:01:3D:4B:F1,left,1665651731,21,0.675000012,-0.194000006,0.75,-116.5,268.2999878,76.5,0,0,0,0,0,0,0,0,-17.71999931,30.51000023,35.61000061
00:3B:13:12:01:3D:4B:F1,left,1665651731,22,0.275999993,-0.203999996,0.61500001,108.9000015,326.8999939,-8.300000191,0,0,0,0,0,0,0,0,-15.82999992,35.63999939,35.45000076
00:3B:13:12:01:3D:4B:F1,left,1665651732,23,0.561999977,-0.293000013,0.720000029,-82,348.6000061,28.79999924,0,0,0,0,0,0,0,0,-18.87000084,40.58000183,36.02000046
00:3B:13:12:01:3D:4B:F1,left,1665651732,24,0.192000002,-0.164000005,0.924000025,67.5,350,-8,0,0,0,0,0,0,0,0,-15.27999973,36.77000046,35.86000061
00:3B:13:12:01:3D:4B:F1,left,1665651732,25,0.331999987,-0.342999995,0.930999994,-44,357.2000122,-1.600000024,0,0,0,0,0,0,0,0,-17.37000084,36.27999878,35.83000183
00:3B:13:12:01:3D:4B:F1,left,1665651732,26,0.167999998,-0.377999991,1.067999959,44.29999924,345.6000061,4.099999905,0,0,0,0,0,0,0,0,-16.79000092,39.70999908,35.90999985
00:3B:13:12:01:3D:4B:F1,left,1665651732,27,-0.046,-0.115000002,1.592000008,-81.59999847,290.6000061,4.300000191,0,0,0,0,0,0,0,0,-16.98999977,40.79999924,35.99000168
00:3B:13:12:01:3D:4B:F1,left,1665651732,28,0.052000001,-0.656000018,2.036999941,-25.20000076,264,25.89999962,0,0,0,0,0,0,0,0,-17.52000046,41.61000061,36.5
00:3B:13:12:01:3D:4B:F1,left,1665651732,29,-0.338999987,-0.469000012,2.424999952,-86.80000305,287.6000061,37.09999847,0,0,0,0,0,0,0,0,-18.40999985,41.84000015,37.24000168
00:3B:13:12:01:3D:4B:F1,left,1665651732,30,-0.430999994,-0.293000013,2.573999882,-106.8000031,321.7000122,24.70000076,0,0,0,0,0,0,0,0,-19.12999916,42.49000168,37.72999954
00:3B:13:12:01:3D:4B:F1,left,1665651732,31,-1.276000023,-0.206,2.563999891,-77.30000305,310.1000061,4.5,0,0,0,0,0,0,0,0,-19.05999947,41.18000031,37.81999969
00:3B:13:12:01:3D:4B:F1,left,1665651732,32,-1.748999953,0.061999999,2.595999956,-167,255.3999939,-2.299999952,0,0,0,0,0,0,0,0,-20.02000046,38.25,37.77999878
00:3B:13:12:01:3D:4B:F1,left,1665651732,33,-2.52699995,0.398999989,1.898000002,-51.29999924,200.1000061,-42.09999847,0,0,0,0,0,0,0,0,-17.73999977,32.77000046,36.93999863
00:3B:13:12:01:3D:4B:F1,left,1665651732,34,-3.532000065,0.497999996,1.225999951,-30.29999924,108.9000015,-65.19999695,0,0,0,0,0,0,0,0,-14.28999996,24.48999977,35.63999939
00:3B:13:12:01:3D:4B:F1,left,1665651732,35,-3.144000053,0.416000009,1.228999972,-62.20000076,-0.200000003,14.89999962,0,0,0,0,0,0,0,0,-12.10000038,15.27999973,35.93000031
00:3B:13:12:01:3D:4B:F1,left,1665651732,36,-2.184999943,0.550999999,1.652999997,-17.10000038,-90.80000305,-9.600000381,0,0,0,0,0,0,0,0,-9.350000381,6.980000019,35.74000168
00:3B:13:12:01:3D:4B:F1,left,1665651732,37,0.109999999,0.56400001,3.752000093,-107.9000015,-188.3000031,249.8999939,0,0,0,0,0,0,0,0,-9.489999771,3.059999943,40.72999954
00:3B:13:12:01:3D:4B:F1,left,1665651732,38,1.838999987,-3.476000071,-2.453999996,262.1000061,-189.3999939,-375.5,50,50,50,50,50,0,50,1844,-16.34000015,1.679999948,33.22000122
00:3B:13:12:01:3D:4B:F1,left,1665651732,39,-1.649999976,3.092999935,3.299000025,-368.1000061,-235.8999939,-281.2000122,52,52,52,52,52,52,2807,2853,-17.01000023,-4.730000019,27.60000038
00:3B:13:12:01:3D:4B:F1,left,1665651732,40,0.055,-2.086999893,-0.108000003,-44.79999924,-161.6999969,-100.5,52,52,52,50,52,52,2995,2962,-25.39999962,-7.010000229,25.59000015
00:3B:13:12:01:3D:4B:F1,left,1665651732,41,-0.479000002,1.812999964,2.766000032,31.29999924,-107,170.5,50,52,52,52,52,50,3028,3061,-18.96999931,-9.050000191,29
00:3B:13:12:01:3D:4B:F1,left,1665651732,42,0.155000001,-2.157999992,-0.349000007,55.20000076,-75.09999847,-81.09999847,52,52,52,50,52,50,3044,3112,-26,-9.079999924,27.37999916
00:3B:13:12:01:3D:4B:F1,left,1665651732,43,-0.293000013,1.547000051,2.476000071,-4.5,-72,66.30000305,52,52,52,52,50,52,3146,3129,-20.28000069,-10.03999996,28.70000076
00:3B:13:12:01:3D:4B:F1,left,1665651732,44,-0.342999995,-1.621999979,-0.167999998,80.59999847,-10.39999962,-103.8000031,52,52,52,52,52,52,3181,3164,-26.38999939,-10.39999962,26.62999916
00:3B:13:12:01:3D:4B:F1,left,1665651732,45,0.148000002,1.246000051,2.061000109,-9.699999809,-13,28.60000038,50,52,52,52,52,52,3199,3164,-20.79999924,-9.239999771,27.20000076
00:3B:13:12:01:3D:4B:F1,left,1665651732,46,-0.206,-1.078999996,0.041000001,35.59999847,-8.699999809,-4.800000191,52,52,52,50,50,52,3199,3181,-40.40999985,-9.819999695,27.11000061
00:3B:13:12:01:3D:4B:F1,left,1665651732,47,-0.071999997,0.277999997,1.286999941,191.6000061,-3.299999952,-26,52,52,52,50,52,52,3199,3181,-31.70000076,-9.199999809,26.59000015
00:3B:13:12:01:3D:4B:F1,left,1665651732,48,0.118000001,-0.287999988,0.897000015,-164.8999939,-5.400000095,32.79999924,52,52,52,52,52,52,3164,3164,-29.82999992,-4.360000134,27.23999977
00:3B:13:12:01:3D:4B:F1,left,1665651732,49,-0.059,0.021,1.080000043,163.5,-4.400000095,-5.099999905,52,52,52,52,52,52,3112,3129,-18.25,-4.039999962,27.13999939
00:3B:13:12:01:3D:4B:F1,left,1665651732,50,0.057,-0.052999999,1.029000044,-142.5,-5.099999905,10,52,52,52,52,52,52,3011,2962,-15.64999962,-1.940000057,27.34000015
00:3B:13:12:01:3D:4B:F1,left,1665651732,51,-0.014,-0.126000002,0.952000022,132.3999939,-5.900000095,4.300000191,50,52,50,50,52,50,2931,2931,-11.35999966,-1.679999948,27.42000008
00:3B:13:12:01:3D:4B:F1,left,1665651732,52,0.015,0.059999999,1.095000029,-114.8000031,-5,12.89999962,52,52,52,50,52,242,2853,2899,-8.609999657,-1.00999999,27.67000008
00:3B:13:12:01:3D:4B:F1,left,1665651732,53,-0.018999999,-0.192000002,0.913999975,101.9000015,-4.699999809,4.300000191,52,52,52,52,52,991,2763,2868,-8.159999847,-1.110000014,27.75
00:3B:13:12:01:3D:4B:F1,left,1665651732,54,-0.002,0.273000002,1.253000021,-66.09999847,-3.900000095,16.60000038,52,52,52,52,52,1419,2691,2778,-7.300000191,-1.070000052,28.07999992
00:3B:13:12:01:3D:4B:F1,left,1665651732,55,-0.008,-0.340999991,0.79400003,49.90000153,-4.300000191,14,52,160,1156,52,52,1540,2594,2635,-8,-1.080000043,28.36000061
00:3B:13:12:01:3D:4B:F1,left,1665651732,56,-0.002,0.192000002,1.19599998,-57.90000153,-4.699999809,10.19999981,52,1722,1419,52,54,1461,2248,2438,-7.320000172,-1.059999943,28.55999947
00:3B:13:12:01:3D:4B:F1,left,1665651732,57,-0.007,-0.226999998,0.875999987,34.29999924,-6,11,52,1799,1555,52,52,1504,52,1461,-9,-0.949999988,28.78000069
00:3B:13:12:01:3D:4B:F1,left,1665651732,58,0.012,0.097999997,1.123999953,-49.79999924,-6.099999905,6.199999809,52,1601,1689,927,52,1548,52,52,-8.489999771,-0.899999976,28.89999962
00:3B:13:12:01:3D:4B:F1,left,1665651732,59,-0.018999999,-0.119999997,0.966000021,29.79999924,-6.599999905,11.30000019,52,1563,1765,1482,52,1371,52,52,-7.489999771,-1.070000052,29.12000084
00:3B:13:12:01:3D:4B:F1,left,1665651732,60,0.023,-0.089000002,1.054999948,-33.20000076,-9.899999619,3.700000048,52,1656,1946,1765,52,789,52,52,-7.150000095,-0.5,29.19000053
00:3B:13:12:01:3D:4B:F1,left,1665651732,61,0.066,0.006,1.110999942,0,-22.39999962,6.199999809,52,1936,2149,2106,52,52,52,52,-6.400000095,-0.5,29.30999947
00:3B:13:12:01:3D:4B:F1,left,1665651732,62,0.050999999,0.115999997,1.381999969,-20.89999962,-43.20000076,3.799999952,52,1936,2159,2248,52,52,52,52,-5.639999866,-1.00999999,29.37999916
00:3B:13:12:01:3D:4B:F1,left,1665651732,63,0.079000004,-0.061000001,1.169999957,5.400000095,-64,32.5,52,1936,2203,2271,52,50,52,52,-5.28000021,-1.669999957,30.03000069
00:3B:13:12:01:3D:4B:F1,left,1665651732,64,0.158000007,0.145999998,1.342000008,-46.79999924,-87.80000305,-6.199999809,52,1871,2225,2248,52,52,52,52,-4.960000038,-2.410000086,29.90999985
00:3B:13:12:01:3D:4B:F1,left,1665651732,65,0.039000001,-0.078000002,1.315000057,-5.699999809,-111.9000015,11,1011,1601,1917,1899,52,52,52,52,-4.900000095,-4,30.12999916
00:3B:13:12:01:3D:4B:F1,left,1665651732,66,0.134000003,-0.175999999,1.404000044,-37.20000076,-143.5,25.60000038,1294,1548,1853,1853,52,52,52,52,-5.789999962,-5.639999866,30.63999939
00:3B:13:12:01:3D:4B:F1,left,1665651732,67,0.170000002,-0.155000001,1.644000053,-22.70000076,-184.1999969,24.60000038,1405,1454,1826,1817,54,52,52,52,-6.150000095,-7.800000191,31.12999916
00:3B:13:12:01:3D:4B:F1,left,1665651732,68,0.246999994,-0.263999999,1.519000053,-2.900000095,-245.3000031,33.59999847,1482,1426,1799,1586,52,52,52,52,-6.559999943,-10.51000023,31.79999924
00:3B:13:12:01:3D:4B:F1,left,1665651732,69,0.145999998,0.151999995,1.889000058,13.39999962,-291.2000122,-2.400000095,1617,1586,1641,719,52,52,52,52,-5.199999809,-14.25,31.76000023
00:3B:13:12:01:3D:4B:F1,left,1665651732,70,0.005,-0.25999999,1.896000028,-71,-338.8999939,-1,2259,1461,50,50,50,50,50,50,-6.730000019,-18.89999962,31.73999977
00:3B:13:12:01:3D:4B:F1,left,1665651732,71,-0.133000001,-0.284000009,2.302000046,-6.199999809,-376.7999878,50.29999924,2413,50,0,50,50,50,50,50,-6.860000134,-24.11000061,32.74000168
00:3B:13:12:01:3D:4B:F1,left,1665651732,72,-0.34799999,0.282999992,2.114000082,-42.70000076,-363.8999939,34,0,0,0,0,0,0,0,0,-6.170000076,-29.15999985,33.41999817
00:3B:13:12:01:3D:4B:F1,left,1665651732,73,0.598999977,-0.300999999,1.840999961,47.40000153,-350.7999878,53.70000076,0,0,0,0,0,0,0,0,-5.630000114,-30.77000046,34.49000168
00:3B:13:12:01:3D:4B:F1,left,1665651732,74,1.567000031,-1.029999971,0.870000005,68,-346.3999939,79.80000305,0,0,0,0,0,0,0,0,-8.819999695,-28.98999977,36.08000183
00:3B:13:12:01:3D:4B:F1,left,1665651733,75,-0.469999999,0.126000002,1.404999971,-39.5,-301.8999939,-100.4000015,0,0,0,0,0,0,0,0,-8.130000114,-33.36000061,34.08000183
00:3B:13:12:01:3D:4B:F1,left,1665651733,76,0.5,-0.284999996,0.107000001,262.7000122,1.600000024,96.80000305,0,0,0,0,0,0,0,0,-9.529999733,-24.12999916,36.00999832
00:3B:13:12:01:3D:4B:F1,left,1665651733,77,0.335999995,0.045000002,0.83099997,-188.8000031,198,88.5,0,0,0,0,0,0,0,0,-11.65999985,-15.94999981,37.77999878
00:3B:13:12:01:3D:4B:F1,left,1665651733,78,0.537,-0.331,0.681999981,150.6999969,262.3999939,15.10000038,0,0,0,0,0,0,0,0,-13.81999969,3.089999914,38.08000183
00:3B:13:12:01:3D:4B:F1,left,1665651733,79,0.620999992,-0.409000009,0.497999996,-149.3000031,285.2000122,86.69999695,0,0,0,0,0,0,0,0,-19.04999924,12.30000019,39.81000137
00:3B:13:12:01:3D:4B:F1,left,1665651733,80,0.254000008,0.048999999,0.791999996,97.09999847,317.7999878,-12.80000019,0,0,0,0,0,0,0,0,-15.03999996,18.54999924,39.56000137
00:3B:13:12:01:3D:4B:F1,left,1665651733,81,0.531000018,-0.398999989,0.726999998,-83.5,325.7999878,44.70000076,0,0,0,0,0,0,0,0,-22.72999954,28.84000015,40.45000076
00:3B:13:12:01:3D:4B:F1,left,1665651733,82,0.187000006,-0.257999986,1.037999988,87.69999695,332.2000122,-26.79999924,0,0,0,0,0,0,0,0,-18.87000084,27.80999947,39.91999817
00:3B:13:12:01:3D:4B:F1,left,1665651733,83,0.268999994,-0.111000001,1.00999999,-65.09999847,328.2999878,-19.70000076,0,0,0,0,0,0,0,0,-16,28.5,39.52999878
00:3B:13:12:01:3D:4B:F1,left,1665651733,84,0.163000003,-0.261999995,1.078999996,53.59999847,312,-5.699999809,0,0,0,0,0,0,0,0,-14.80000019,32.09999847,39.41999817
00:3B:13:12:01:3D:4B:F1,left,1665651733,85,0.097000003,-0.150000006,1.514999986,-95.19999695,294.7000122,-15.30000019,0,0,0,0,0,0,0,0,-15.59000015,34.54999924,39.11999893
00:3B:13:12:01:3D:4B:F1,left,1665651733,86,0.104000002,-0.39199999,1.856999993,4.599999905,277.5,-14.80000019,0,0,0,0,0,0,0,0,-15.14000034,36.40000153,38.83000183
00:3B:13:12:01:3D:4B:F1,left,1665651733,87,0.008,-0.296999991,2.263000011,-86.19999695,274.8999939,-17.29999924,0,0,0,0,0,0,0,0,-15.92000008,37.72000122,38.49000168
00:3B:13:12:01:3D:4B:F1,left,1665651733,88,-0.307000011,-0.559000015,2.730999947,-47.20000076,279.7999878,-38.09999847,0,0,0,0,0,0,0,0,-16.32999992,38.34999847,37.72999954
00:3B:13:12:01:3D:4B:F1,left,1665651733,89,-1.333999991,-0.158000007,2.910000086,-95,291.3999939,-11.5,0,0,0,0,0,0,0,0,-16.70999908,37.29000092,37.5
00:3B:13:12:01:3D:4B:F1,left,1665651733,90,-1.922999978,-0.044,2.446000099,-45.09999847,282.8999939,-24.89999962,0,0,0,0,0,0,0,0,-15.94999981,34.81999969,37.00999832
00:3B:13:12:01:3D:4B:F1,left,1665651733,91,-2.589999914,0.275999993,1.463000059,-3.200000048,226.1999969,-23.70000076,0,0,0,0,0,0,0,0,-13.34000015,29.38999939,36.54000092
00:3B:13:12:01:3D:4B:F1,left,1665651733,92,-3.371999979,0.324999988,0.874000013,-65,136,14.30000019,0,0,0,0,0,0,0,0,-11.13000011,21.44000053,36.81999969
00:3B:13:12:01:3D:4B:F1,left,1665651733,93,-2.913000107,0.541999996,1.593999982,-112.8000031,31,50.09999847,0,0,0,0,0,0,0,0,-10.15999985,13.85000038,37.81999969
00:3B:13:12:01:3D:4B:F1,left,1665651733,94,-1.605999947,0.910000026,4.774000168,-25.79999924,-73.5,36.40000153,0,0,0,0,0,0,0,0,-8.520000458,9.31000042,38.54000092
00:3B:13:12:01:3D:4B:F1,left,1665651733,95,0.294,-3.278000116,1.61500001,772.5,-169.8999939,342.6000061,0,0,0,0,0,0,0,0,-0.140000001,5.78000021,45.38999939
00:3B:13:12:01:3D:4B:F1,left,1665651733,96,-0.58099997,3.719000101,3.101000071,-702.0999756,-312.5,-395.2000122,50,50,50,50,52,50,2720,2763,-7.739999771,-1.100000024,37.49000168
00:3B:13:12:01:3D:4B:F1,left,1665651733,97,-0.671999991,-2.016000032,0.435000002,391.3999939,-225.8000031,252.8999939,52,52,52,50,52,52,2946,2946,-7.710000038,-6.849999905,42.54000092
00:3B:13:12:01:3D:4B:F1,left,1665651733,98,-0.842999995,1.758000016,2.665999889,-369.6000061,-105.1999969,-161.3000031,50,52,52,52,52,50,3028,2979,-10.23999977,-9.529999733,39.31999969
00:3B:13:12:01:3D:4B:F1,left,1665651733,99,0.717999995,-2.221999884,0.112000003,418,-110,202.3000031,52,50,52,50,52,52,3011,2979,-10.39999962,-8.760000229,43.36000061
00:3B:13:12:01:3D:4B:F1,left,1665651733,100,-0.785000026,1.289999962,2.089999914,-319.1000061,-66.80000305,-122.3000031,50,50,52,52,52,52,3028,3112,-11.93000031,-10.85000038,40.91999817
00:3B:13:12:01:3D:4B:F1,left,1665651733,101,0.216000006,-1.480999947,0.256000012,351.7999878,-26.79999924,-28.29999924,50,52,52,50,50,50,3129,3146,-12.42000008,-9.420000076,40.36000061
00:3B:13:12:01:3D:4B:F1,left,1665651733,102,-0.272000015,1.161999941,1.81099999,-243.3000031,-26.39999962,7.800000191,52,52,52,50,52,52,3146,3146,-12.27999973,-9.659999847,40.50999832
00:3B:13:12:01:3D:4B:F1,left,1665651733,103,-0.079000004,-1.128000021,0.101999998,257.3999939,-5.900000095,-15.89999962,52,52,52,50,52,50,3164,3164,-14.89999962,-9.18999958,40.20000076
00:3B:13:12:01:3D:4B:F1,left,1665651733,104,0.030999999,0.934000015,1.764999986,-33.70000076,-2.799999952,17.29999924,52,52,52,52,52,52,3164,3164,-11.22000027,-8.220000267,40.54000092
00:3B:13:12:01:3D:4B:F1,left,1665651733,105,-0.02,-0.822000027,0.347000003,14.30000019,-4.5,15.5,52,52,52,52,52,52,3146,3164,-16.54999924,-7.599999905,40.84999847
00:3B:13:12:01:3D:4B:F1,left,1665651733,106,-0.009,0.66900003,1.552000046,5.199999809,-0.400000006,5.699999809,52,52,52,50,52,52,3044,3129,-12.47000027,-6.869999886,40.95999908
00:3B:13:12:01:3D:4B:F1,left,1665651733,107,0.056000002,-0.648999989,0.563000023,-24.70000076,-5.400000095,17.60000038,52,52,52,50,52,537,2995,2979,-16.55999947,-5.900000095,41.31000137
00:3B:13:12:01:3D:4B:F1,left,1665651733,108,-0.033,0.444999993,1.378000021,32.79999924,-2.5,2.400000095,52,52,52,52,52,986,2931,2946,-12.52000046,-5.480000019,41.34999847
00:3B:13:12:01:3D:4B:F1,left,1665651733,109,0.029999999,-0.458999991,0.700999975,-37.09999847,-4.099999905,14,52,52,52,52,54,1257,2853,2915,-15.25,-4.789999962,41.63000107
00:3B:13:12:01:3D:4B:F1,left,1665651733,110,-0.013,-0.028999999,1.013000011,33.5,-2.099999905,9.5,52,52,52,52,52,1504,2748,2853,-8.100000381,-2.779999971,41.81999969
00:3B:13:12:01:3D:4B:F1,left,1665651733,111,0.013,-0.072999999,0.990999997,-86,-2.799999952,17.39999962,52,72,1162,52,52,1440,2649,2705,-7.010000229,-1.039999962,42.15999985
00:3B:13:12:01:3D:4B:F1,left,1665651733,112,-0.011,0,1.024999976,56.20000076,-2.900000095,8.600000381,52,1504,1392,52,54,1371,2413,2502,-2.940000057,-0.850000024,42.33000183
00:3B:13:12:01:3D:4B:F1,left,1665651733,113,0.006,-0.079999998,0.972000003,-65.80000305,-4.199999809,11,52,1765,1482,52,52,1419,149,1689,-4.46999979,-0.280000001,42.54999924
00:3B:13:12:01:3D:4B:F1,left,1665651733,114,-0.013,0.014,1.065000057,35.90000153,-3.799999952,5.400000095,52,1799,1571,52,50,1426,52,52,-2.400000095,-0.449999988,42.65000153
00:3B:13:12:01:3D:4B:F1,left,1665651733,115,0.008,-0.126000002,0.952000022,-36.90000153,-5.599999905,11.30000019,52,1765,1853,156,52,1365,52,52,-4.449999809,-0.239999995,42.86999893
00:3B:13:12:01:3D:4B:F1,left,1665651733,116,-0.014,0.041999999,1.103000045,18.70000076,-5.099999905,5.400000095,52,1586,1756,1378,52,1101,54,52,-3.450000048,-0.370000005,42.97000122
00:3B:13:12:01:3D:4B:F1,left,1665651733,117,0.023,-0.129999995,0.991999984,-1.899999976,-9.100000381,16.60000038,52,1681,2127,1656,52,147,52,52,-5.46999979,0.379999995,43.29999924
00:3B:13:12:01:3D:4B:F1,left,1665651733,118,-0.002,0.035999998,1.085999966,-4.5,-15.89999962,13.89999962,52,1862,2159,1927,52,52,52,52,-3.319999933,0.01,43.56999969
00:3B:13:12:01:3D:4B:F1,left,1665651733,119,0.090999998,0.140000001,1.231999993,-31.89999962,-32.29999924,13.10000038,50,1927,2159,2065,52,52,52,52,-2.900000095,-0.140000001,43.83000183
00:3B:13:12:01:3D:4B:F1,left,1665651733,120,0.052000001,-0.006,1.169999957,6.5,-47.59999847,8.800000191,52,1917,2181,2237,52,52,52,52,-2.519999981,-0.720000029,44
00:3B:13:12:01:3D:4B:F1,left,1665651733,121,0.116999999,-0.018999999,1.271000028,-39.29999924,-67.19999695,3.099999905,52,1853,2214,2248,52,52,52,52,-3.049999952,-1.320000052,44.06000137
00:3B:13:12:01:3D:4B:F1,left,1665651733,122,0.046,0.064000003,1.261999965,-13.60000038,-88.30000305,1.799999952,52,1853,2225,2181,52,52,52,52,-2.690000057,-2.559999943,44.09000015
00:3B:13:12:01:3D:4B:F1,left,1665651733,123,0.104999997,-0.037,1.325999975,-31.39999962,-111.6999969,2.400000095,1047,1578,1908,1889,52,52,52,52,-3.130000114,-3.849999905,44.13000107
00:3B:13:12:01:3D:4B:F1,left,1665651734,124,0.148000002,-0.077,1.488000035,-29,-141.1999969,9.300000191,1378,1496,1835,1844,52,52,52,52,-3.630000114,-5.429999828,44.31000137
00:3B:13:12:01:3D:4B:F1,left,1665651734,125,0.119999997,-0.363000005,1.565999985,2.299999952,-193.8000031,4.800000191,1440,1412,1817,1817,52,52,52,52,-4.53000021,-7.940000057,44.40000153
00:3B:13:12:01:3D:4B:F1,left,1665651734,126,0.328999996,-0.108000003,1.764000058,-66.5,-250.8000031,35,1511,1385,1747,1578,52,52,52,52,-5.619999886,-10.60000038,45.09999847
00:3B:13:12:01:3D:4B:F1,left,1665651734,127,0.175999999,-0.093000002,1.894000053,22.5,-304.5,-0.100000001,1641,1489,1563,680,52,52,52,52,-4.929999828,-14.48999977,45.09999847
00:3B:13:12:01:3D:4B:F1,left,1665651734,128,-0.015,-0.216000006,2.157000065,-120.1999969,-360.2000122,3,2237,1269,50,50,52,50,50,50,-7.159999847,-19.55999947,45.15999985
00:3B:13:12:01:3D:4B:F1,left,1665651734,129,-0.171000004,-0.175999999,2.183000088,7.400000095,-386.6000061,56.20000076,0,0,0,0,0,0,0,0,-6.769999981,-25,46.27999878
00:3B:13:12:01:3D:4B:F1,left,1665651734,130,-0.307000011,-0.319999993,2.322000027,-153.8000031,-360.7999878,40.20000076,0,0,0,0,0,0,0,0,-9.640000343,-29.72999954,47.08000183
00:3B:13:12:01:3D:4B:F1,left,1665651734,131,0.995000005,-0.416000009,2.020999908,46.5,-347,97.40000153,0,0,0,0,0,0,0,0,-9,-30.42000008,49.02000046
00:3B:13:12:01:3D:4B:F1,left,1665651734,132,0.910000026,-0.916999996,0.731000006,49.29999924,-352.5,33.5,0,0,0,0,0,0,0,0,-12.35999966,-29.94000053,49.68999863
00:3B:13:12:01:3D:4B:F1,left,1665651734,133,-0.504999995,1.422000051,0.870999992,130.1000061,-172.5,14.80000019,0,0,0,0,0,0,0,0,-2.930000067,-31.72999954,49.97999954
00:3B:13:12:01:3D:4B:F1,left,1665651734,134,0.36500001,-0.791999996,-0.442000002,99.09999847,114,42.5,0,0,0,0,0,0,0,0,-60.04999924,-3.75999999,50.83000183
00:3B:13:12:01:3D:4B:F1,left,1665651734,135,0.699000001,0.453000009,1.212000012,-95.09999847,198.5,126,0,0,0,0,0,0,0,0,-53.70000076,3.019999981,53.34999847
00:3B:13:12:01:3D:4B:F1,left,1665651734,136,0.377999991,-0.971000016,0.034000002,52.09999847,245.6999969,56.40000153,0,0,0,0,0,0,0,0,-63.25999832,11.92000008,54.47000122
00:3B:13:12:01:3D:4B:F1,left,1665651734,137,0.73299998,0.379999995,1.001999974,-120,300.2999878,68.59999847,0,0,0,0,0,0,0,0,-57.00999832,19.55999947,55.84000015
00:3B:13:12:01:3D:4B:F1,left,1665651734,138,0.426999986,-0.611999989,0.405000001,60.59999847,336.7000122,41.09999847,0,0,0,0,0,0,0,0,-55.86999893,26.68000031,56.65999985
00:3B:13:12:01:3D:4B:F1,left,1665651734,139,0.404000014,0.294999987,1.309999943,4.300000191,346.3999939,-39,0,0,0,0,0,0,0,0,-48.93999863,31.90999985,55.88000107
00:3B:13:12:01:3D:4B:F1,left,1665651734,140,0.330000013,-0.57099998,0.610000014,48.29999924,331,3,0,0,0,0,0,0,0,0,-47.49000168,36.83000183,55.93999863
00:3B:13:12:01:3D:4B:F1,left,1665651734,141,0.075000003,0.172999993,1.228999972,-15.19999981,326.2999878,-38.29999924,0,0,0,0,0,0,0,0,-42.20000076,39.36000061,55.18000031
00:3B:13:12:01:3D:4B:F1,left,1665651734,142,0.135000005,-0.556999981,1.083999991,-14.10000038,299.7000122,-9.600000381,0,0,0,0,0,0,0,0,-40.95000076,41.43999863,54.99000168
00:3B:13:12:01:3D:4B:F1,left,1665651734,143,-0.002,-0.100000001,1.902999997,-49.09999847,281.2000122,-16.39999962,0,0,0,0,0,0,0,0,-38.02999878,42.34000015,54.66999817
00:3B:13:12:01:3D:4B:F1,left,1665651734,144,0.035,-0.589999974,1.929999948,-25.39999962,264.2999878,-10.30000019,0,0,0,0,0,0,0,0,-36.36999893,42.95000076,54.47000122
00:3B:13:12:01:3D:4B:F1,left,1665651734,145,-0.305000007,-0.477999985,2.436000109,-49,284.7999878,2,0,0,0,0,0,0,0,0,-34.72000122,43.06999969,54.50999832
00:3B:13:12:01:3D:4B:F1,left,1665651734,146,-0.776000023,0.171000004,2.249000072,-119.9000015,310,6.5,0,0,0,0,0,0,0,0,-32.95999908,42.43999863,54.63999939
00:3B:13:12:01:3D:4B:F1,left,1665651734,147,-2.155999899,-1.355999947,3.282000065,-257.3999939,259.7000122,19.20000076,0,0,0,0,0,0,0,0,-36.52999878,39.74000168,55.02000046
00:3B:13:12:01:3D:4B:F1,left,1665651734,148,-2.017999887,-0.540000021,1.126000047,149.3999939,215.8000031,-72.80000305,0,0,0,0,0,0,0,0,-32.75,33.81999969,53.56999969
00:3B:13:12:01:3D:4B:F1,left,1665651734,149,-2.562000036,1.126000047,2.082999945,-168.3000031,195.6999969,5.699999809,0,0,0,0,0,0,0,0,-29.64999962,29.22999954,53.68000031
00:3B:13:12:01:3D:4B:F1,left,1665651734,150,-3.045000076,-0.550000012,0.512000024,-3.200000048,81,-7,0,0,0,0,0,0,0,0,-31.44000053,20.14999962,53.54000092
00:3B:13:12:01:3D:4B:F1,left,1665651734,151,-2.494999886,1.105000019,2.095000029,-152.1000061,-14.30000019,11.89999962,0,0,0,0,0,0,0,0,-28.25,13.22999954,53.77000046
00:3B:13:12:01:3D:4B:F1,left,1665651734,152,-1.692000031,1.835999966,2.29399991,225,-278.1000061,-50.29999924,0,0,0,0,0,0,0,0,-17.5,3.900000095,52.77000046
00:3B:13:12:01:3D:4B:F1,left,1665651734,153,1.833999991,-0.277999997,0.739000022,-496.2000122,-313.3999939,54.70000076,50,52,50,50,50,50,1112,2413,-26.72999954,4.539999962,53.86000061
00:3B:13:12:01:3D:4B:F1,left,1665651734,154,-1.271999955,0.912,2.253000021,389.7000122,-217,-440.2000122,52,52,52,50,52,52,2807,2868,-14.84000015,-2.579999924,45.06000137
00:3B:13:12:01:3D:4B:F1,left,1665651734,155,-0.382999986,-0.999000013,1.32099998,-414.1000061,-187.1000061,203.6000061,50,52,50,50,50,50,2979,2946,-24.51000023,-6.989999771,49.13000107
00:3B:13:12:01:3D:4B:F1,left,1665651734,156,-0.624000013,0.876999974,1.861999989,414.8999939,-87.40000153,35.90000153,50,52,52,52,52,52,2979,2962,-12.06999969,-9.539999962,49.84000015
00:3B:13:12:01:3D:4B:F1,left,1665651734,157,0.538999975,-1.774000049,0.685000002,-269,-77,19.60000038,52,52,52,50,52,50,2962,2946,-22.59000015,-8.380000114,50.22999954
00:3B:13:12:01:3D:4B:F1,left,1665651734,158,-0.702000022,0.824000001,1.574000001,307.6000061,-42.40000153,-65.59999847,52,52,52,52,52,50,2995,2962,-12.02999973,-10.44999981,48.91999817
00:3B:13:12:01:3D:4B:F1,left,1665651734,159,-0.470999986,0.547999978,1.463999987,-188.1999969,-11.19999981,-68.59999847,52,52,52,50,52,52,3028,3028,-12.14999962,-11.27000046,47.54999924
00:3B:13:12:01:3D:4B:F1,left,1665651734,160,0.300000012,-0.643000007,0.611000001,279.7999878,-11.80000019,17.89999962,52,52,50,52,52,52,3061,3112,-18.53000069,-2.440000057,47.90000153
00:3B:13:12:01:3D:4B:F1,left,1665651734,161,-0.093999997,0.515999973,1.416000009,-199.5,-8.199999809,42.40000153,52,52,52,52,52,50,3112,3129,-18.26000023,-2.690000057,48.74000168
00:3B:13:12:01:3D:4B:F1,left,1665651734,162,-0.086000003,-0.546000004,0.630999982,187.5,1,-28.10000038,50,52,50,50,52,113,3112,3129,-17.13999939,-3,48.18000031
00:3B:13:12:01:3D:4B:F1,left,1665651734,163,0.115000002,0.458000004,1.396999955,-157.5,-3.400000095,29.20000076,52,52,52,52,52,650,3061,3129,-16.44000053,-2.299999952,48.75999832
00:3B:13:12:01:3D:4B:F1,left,1665651734,164,-0.037,-0.521000028,0.633000016,134.1000061,-2.700000048,8.300000191,52,52,52,52,52,1123,3028,2995,-16.31999969,-2.369999886,48.91999817
00:3B:13:12:01:3D:4B:F1,left,1665651734,165,0.017000001,0.423000008,1.375,-114.5,-0.300000012,4.599999905,52,52,52,52,52,1433,2962,2962,-15.02999973,-2.059999943,49.00999832
00:3B:13:12:01:3D:4B:F1,left,1665651734,166,0.039999999,-0.541999996,0.649999976,17.79999924,-1,23.39999962,52,52,54,52,54,1269,2884,2946,-17.19000053,-1.580000043,49.47000122
00:3B:13:12:01:3D:4B:F1,left,1665651734,167,-0.02,0.393999994,1.309000015,-16.60000038,-1.5,8.899999619,52,52,52,52,52,1307,2807,2884,-14.09000015,-1.5,49.63999939
00:3B:13:12:01:3D:4B:F1,left,1665651734,168,0.025,-0.404000014,0.726000011,4.699999809,-1.600000024,15.10000038,52,54,1145,52,52,1307,2734,2822,-15.5,-1.200000048,49.93999863
00:3B:13:12:01:3D:4B:F1,left,1665651734,169,-0.017000001,0.284000009,1.235000014,-21.5,-2.799999952,8.899999619,52,54,1504,52,54,1378,2649,2677,-13.03999996,-1.200000048,50.11000061
00:3B:13:12:01:3D:4B:F1,left,1665651734,170,0.01,-0.296000004,0.783999979,2.900000095,-2.599999905,13.60000038,52,1665,1440,52,52,1313,2438,2502,-13.75,-1.049999952,50.38000107
00:3B:13:12:01:3D:4B:F1,left,1665651734,171,-0.009,0.199000001,1.18900001,-26,-3.900000095,2.799999952,52,1782,1511,52,52,1392,1162,1625,-11.89000034,-1.049999952,50.43000031
00:3B:13:12:01:3D:4B:F1,left,1665651734,172,0,-0.244000003,0.861999989,6.199999809,-4.599999905,11.10000038,52,1799,1578,52,52,1440,52,78,-12.17000008,-1.019999981,50.65000153
00:3B:13:12:01:3D:4B:F1,left,1665651734,173,-0.014,0.089000002,1.136999965,-27.10000038,-5.099999905,4.300000191,52,1697,1705,402,52,1398,52,52,-10.98999977,-1.070000052,50.72999954
00:3B:13:12:01:3D:4B:F1,left,1665651735,174,0.023,-0.170000002,0.93900001,-2.700000048,-6.599999905,15.60000038,52,1563,1782,1398,52,1232,52,52,-10.80000019,-0.419999987,51.04000092
00:3B:13:12:01:3D:4B:F1,left,1665651735,175,0.006,0.021,1.108999968,-10.19999981,-9.5,6.099999905,52,1689,1946,1533,52,876,52,52,-9.789999962,-0.50999999,51.15999985
00:3B:13:12:01:3D:4B:F1,left,1665651735,176,0.025,-0.115000002,0.978999972,6.400000095,-16.60000038,11.69999981,52,1871,2159,1965,52,52,52,52,-8.180000305,0.300000012,51.38999939
00:3B:13:12:01:3D:4B:F1,left,1665651735,177,0.075999998,0.134000003,1.210999966,-55.5,-29.79999924,0,52,1936,2159,2106,52,52,52,52,-7.71999979,0.090000004,51.38999939
00:3B:13:12:01:3D:4B:F1,left,1665651735,178,0.041999999,0.033,1.307000041,24.20000076,-48.5,11.19999981,52,1936,2192,2237,52,52,52,52,-6.369999886,-0.600000024,51.61000061
00:3B:13:12:01:3D:4B:F1,left,1665651735,179,0.122000001,-0.100000001,1.187000036,-37,-67.69999695,19.89999962,52,1908,2214,2248,52,52,52,52,-6.880000114,-1.169999957,52
00:3B:13:12:01:3D:4B:F1,left,1665651735,180,0.032000002,0.119999997,1.289000034,-18.79999924,-85.90000153,-0.899999976,165,1826,2159,2096,52,52,52,52,-5.989999771,-2.450000048,51.99000168
00:3B:13:12:01:3D:4B:F1,left,1665651735,181,0.138999999,-0.108999997,1.351999998,-34.20000076,-116.1999969,11.10000038,1112,1586,1908,1871,52,52,52,52,-6.460000038,-3.700000048,52.20999908
00:3B:13:12:01:3D:4B:F1,left,1665651735,182,0.075000003,-0.185000002,1.569000006,-11.39999962,-147,1.100000024,1358,1540,1835,1826,52,52,54,52,-6.679999828,-5.699999809,52.22999954
00:3B:13:12:01:3D:4B:F1,left,1665651735,183,0.194000006,-0.319999993,1.424999952,-15.80000019,-193.3000031,47.09999847,1426,1511,1817,1681,52,52,52,52,-7.550000191,-7.840000153,53.16999817
00:3B:13:12:01:3D:4B:F1,left,1665651735,184,0.241999999,-0.034000002,1.911999941,-3.599999905,-240.5,-1.799999952,1526,1548,1782,1079,52,52,52,52,-6.949999809,-10.65999985,53.13999939
00:3B:13:12:01:3D:4B:F1,left,1665651735,185,0.223000005,-0.338999987,1.600999951,-0.600000024,-297.6000061,21.70000076,1808,1673,1555,64,52,52,52,52,-7.449999809,-14.17000008,53.56999969
00:3B:13:12:01:3D:4B:F1,left,1665651735,186,-0.165000007,0.191,2.28399992,-65.40000153,-342.1000061,-6.599999905,2159,1398,50,50,50,50,50,50,-7.389999866,-19.31999969,53.43999863
00:3B:13:12:01:3D:4B:F1,left,1665651735,187,-0.123000003,-0.512000024,1.850000024,-4.599999905,-370.3999939,52.20000076,0,0,0,0,0,0,0,0,-8.270000458,-24.40999985,54.47999954
00:3B:13:12:01:3D:4B:F1,left,1665651735,188,-0.030999999,0.048,2.637000084,-120.5,-343.1000061,15.80000019,0,0,0,0,0,0,0,0,-9.5,-28.20999908,54.79000092
00:3B:13:12:01:3D:4B:F1,left,1665651735,189,1.218000054,-1.029000044,1.299000025,115.6999969,-330.7999878,100.9000015,0,0,0,0,0,0,0,0,-10.30000019,-27.70000076,56.79999924
00:3B:13:12:01:3D:4B:F1,left,1665651735,190,1.052000046,-0.699999988,0.703000009,109.3000031,-333,29.39999962,0,0,0,0,0,0,0,0,-11.78999996,-26.25,57.38000107
00:3B:13:12:01:3D:4B:F1,left,1665651735,191,-0.546999991,1.095999956,0.433999985,30.79999924,-181.8999939,-1,0,0,0,0,0,0,0,0,-3.220000029,-29.37999916,57.36000061
00:3B:13:12:01:3D:4B:F1,left,1665651735,192,0.474999994,-0.470999986,0.165999994,80.30000305,64.40000153,29.70000076,0,0,0,0,0,0,0,0,-8.510000229,-20.93000031,57.95000076
00:3B:13:12:01:3D:4B:F1,left,1665651735,193,0.586000025,0.027000001,1.138000011,-118.8000031,169,84.59999847,0,0,0,0,0,0,0,0,-9.649999619,-13.06999969,59.63999939
00:3B:13:12:01:3D:4B:F1,left,1665651735,194,0.36500001,-0.549000025,0.425000012,96.40000153,223.6000061,17.5,0,0,0,0,0,0,0,0,-12.18000031,-4.960000038,59.99000168
00:3B:13:12:01:3D:4B:F1,left,1665651735,195,0.499000013,0.280000001,0.764999986,-92.69999695,280.3999939,46.20000076,0,0,0,0,0,0,0,0,-3.789999962,9.890000343,60.90999985
00:3B:13:12:01:3D:4B:F1,left,1665651735,196,0.344999999,-0.344000012,0.328999996,33.29999924,308.1000061,37.5,0,0,0,0,0,0,0,0,-7.440000057,18.03000069,61.65999985
00:3B:13:12:01:3D:4B:F1,left,1665651735,197,0.456999987,0.254000008,1.006000042,-59.40000153,327.6000061,-4.099999905,0,0,0,0,0,0,0,0,-6.340000153,24.48999977,61.58000183
00:3B:13:12:01:3D:4B:F1,left,1665651735,198,0.379000008,-0.284999996,0.800000012,41.20000076,327.8999939,4.099999905,0,0,0,0,0,0,0,0,-9.739999771,28.94000053,61.65999985
00:3B:13:12:01:3D:4B:F1,left,1665651735,199,0.25999999,0.195999995,1.152999997,-27.29999924,324.1000061,-29.79999924,0,0,0,0,0,0,0,0,-8.279999733,33.13000107,61.06999969
00:3B:13:12:01:3D:4B:F1,left,1665651735,200,0.199000001,-0.208000004,1.039999962,14.39999962,301.7000122,-11.89999962,0,0,0,0,0,0,0,0,-8.989999771,30.60000038,60.84000015
00:3B:13:12:01:3D:4B:F1,left,1665651735,201,0.104000002,0.104999997,1.718000054,-69,281.5,-22.89999962,0,0,0,0,0,0,0,0,-8.979999542,32.95000076,60.38999939
00:3B:13:12:01:3D:4B:F1,left,1665651735,202,0.098999999,-0.229000002,2.017999887,-2.5,267.2999878,-29.60000038,0,0,0,0,0,0,0,0,-8.770000458,34.74000168,59.79999924
00:3B:13:12:01:3D:4B:F1,left,1665651735,203,-0.123999998,-0.377000004,2.588000059,-23.20000076,266.7000122,-25.5,0,0,0,0,0,0,0,0,-9.130000114,35.79000092,59.29000092
00:3B:13:12:01:3D:4B:F1,left,1665651735,204,-0.657000005,-0.107000001,2.579999924,-47.5,261.2999878,-32.70000076,0,0,0,0,0,0,0,0,-9.300000191,35.47999954,58.63999939
00:3B:13:12:01:3D:4B:F1,left,1665651735,205,-1.722000003,-0.430999994,2.773999929,-13.69999981,262,-29.29999924,0,0,0,0,0,0,0,0,-9.489999771,33.49000168,58.06000137
00:3B:13:12:01:3D:4B:F1,left,1665651735,206,-2.151000023,-0.367000014,1.81400001,-13.69999981,277.6000061,4.900000095,0,0,0,0,0,0,0,0,-9.920000076,30.20000076,58.15000153
00:3B:13:12:01:3D:4B:F1,left,1665651735,207,-2.34800005,0.326000005,0.879000008,-54.90000153,240.8000031,54.29999924,0,0,0,0,0,0,0,0,-7.869999886,24.68000031,59.22999954
00:3B:13:12:01:3D:4B:F1,left,1665651735,208,-2.921999931,0.365999997,1.128999949,-217.6000061,148.3999939,30.70000076,0,0,0,0,0,0,0,0,-9.199999809,18.07999992,59.84000015
00:3B:13:12:01:3D:4B:F1,left,1665651735,209,-2.437000036,0.481000006,2.244999886,-108.5999985,30.89999962,26.79999924,0,0,0,0,0,0,0,0,-9.020000458,12.14999962,60.36999893
00:3B:13:12:01:3D:4B:F1,left,1665651735,210,-2.77699995,1.425999999,2.193000078,-30.5,-257.6000061,-91.30000305,0,0,0,0,0,0,0,0,-5.360000134,1.620000005,58.54999924
00:3B:13:12:01:3D:4B:F1,left,1665651735,211,2.700999975,-2.453999996,-1.231999993,146.6000061,-374.1000061,113.5999985,0,90,60,0,82,74,109,578,-13.85000038,-0.819999993,60.81999969
00:3B:13:12:01:3D:4B:F1,left,1665651735,212,-1.226999998,3.464999914,2.967999935,-170.6999969,-265.7000122,-549.7999878,50,52,52,50,52,50,2778,2853,-10.59000015,-7.019999981,49.83000183
00:3B:13:12:01:3D:4B:F1,left,1665651735,213,-0.308999985,-2.345000029,-0.026000001,100.9000015,-218,303.7000122,50,52,50,50,50,52,2946,2946,-16.78000069,-10.98999977,55.90000153
00:3B:13:12:01:3D:4B:F1,left,1665651735,214,-1.077000022,2.523000002,2.799999952,-75.30000305,-127.4000015,-137.5,50,52,52,50,50,52,2979,2946,-12.23999977,-13.77000046,53.15000153
00:3B:13:12:01:3D:4B:F1,left,1665651735,215,0.759000003,-2.239000082,-0.167999998,186.3999939,-99.30000305,142.1999969,50,52,52,50,52,50,2962,2946,-17.09000015,-12.30000019,55.99000168
00:3B:13:12:01:3D:4B:F1,left,1665651735,216,-0.703000009,1.41900003,1.695000052,184.6999969,-52.40000153,-44,52,52,52,50,52,52,2962,2946,-8.06000042,-13.77000046,55.11000061
00:3B:13:12:01:3D:4B:F1,left,1665651735,217,-0.075000003,-0.779999971,0.426999986,-77.59999847,1.200000048,-81.30000305,52,50,52,50,50,50,2995,2962,-14.77000046,-12.86999989,53.49000168
00:3B:13:12:01:3D:4B:F1,left,1665651735,218,0.152999997,0.583999991,1.42900002,138.5,-9.699999809,63.5,50,50,52,52,50,50,3011,2979,-8.569999695,-11.18000031,54.75999832
00:3B:13:12:01:3D:4B:F1,left,1665651735,219,-0.209000006,-0.456999987,0.635999978,-91.80000305,-1.799999952,-8.5,52,52,52,52,52,50,3011,2979,-12.92000008,-11.57999992,54.59000015
00:3B:13:12:01:3D:4B:F1,left,1665651735,220,0.092,0.298000008,1.294999957,108.5,-2.5,-4.699999809,52,52,52,52,52,52,3028,2979,-8.369999886,-10.06999969,54.5
00:3B:13:12:01:3D:4B:F1,left,1665651735,221,0.021,-0.305000007,0.80400002,-101.3000031,-4.599999905,32.40000153,52,52,52,52,50,50,3028,2979,-11.42000008,-9,55.13999939
00:3B:13:12:01:3D:4B:F1,left,1665651735,222,-0.064999998,0.172999993,1.156999946,96.80000305,-1.399999976,-11.30000019,52,52,52,52,52,1074,2995,2979,-7.690000057,-8.409999847,54.91999817
00:3B:13:12:01:3D:4B:F1,left,1665651735,223,0.017000001,0.248999998,1.228999972,-113.3000031,0,16.60000038,52,52,52,52,54,1220,2979,2962,-7.800000191,-7.489999771,55.25
00:3B:13:12:01:3D:4B:F1,left,1665651735,224,0.026000001,-0.335999995,0.797999978,93.90000153,-1.399999976,12,52,52,56,52,52,1281,2931,2946,-7.619999886,-6.559999943,55.49000168
00:3B:13:12:01:3D:4B:F1,left,1665651736,225,-0.008,0.238000005,1.210999966,-81.09999847,-1.299999952,5.900000095,52,60,1074,52,52,1168,2853,2931,-7.199999809,-5.940000057,55.59999847
00:3B:13:12:01:3D:4B:F1,left,1665651736,226,0.01,-0.307000011,0.814999998,67.59999847,-1,8.5,52,1042,1162,52,52,1032,2807,2899,-7.320000172,-5.28000021,55.77000046
00:3B:13:12:01:3D:4B:F1,left,1665651736,227,0.005,0.193000004,1.16900003,-62.90000153,-1.799999952,8.699999809,52,1705,1319,52,54,1037,2748,2853,-6.769999981,-4.75,55.93999863
00:3B:13:12:01:3D:4B:F1,left,1665651736,228,0.003,-0.228,0.851999998,48,-1.399999976,9.5,52,1799,1398,52,54,1068,2705,2778,-6.71999979,-4.25,56.13000107
00:3B:13:12:01:3D:4B:F1,left,1665651736,229,0,0.147,1.129999995,-50.29999924,-2.299999952,4.400000095,52,1826,1440,52,54,1173,2649,2677,-6.199999809,-3.859999895,56.20999908
00:3B:13:12:01:3D:4B:F1,left,1665651736,230,0.012,-0.229000002,0.85799998,9.399999619,-1.899999976,12.30000019,52,1826,1496,52,52,1257,2567,2608,-6.909999847,-3.420000076,56.45000076
00:3B:13:12:01:3D:4B:F1,left,1665651736,231,-0.008,0.137999997,1.129999995,-15,-2.400000095,3.099999905,52,1835,1555,52,54,1294,2341,2489,-5.789999962,-3.150000095,56.50999832
00:3B:13:12:01:3D:4B:F1,left,1665651736,232,0.011,-0.186000004,0.893000007,8.100000381,-1.899999976,11,52,1862,1586,52,54,1332,1461,2024,-7.46999979,-2.00999999,56.72999954
00:3B:13:12:01:3D:4B:F1,left,1665651736,233,0.004,0.100000001,1.09800005,-15.80000019,-3.299999952,3.900000095,52,1871,1609,64,52,1378,52,1398,-6.480000019,-1.840000033,56.79999924
00:3B:13:12:01:3D:4B:F1,left,1665651736,234,0.02,-0.142000005,0.921000004,5.900000095,-4.5,7.5,52,1756,1765,447,52,1319,52,52,-7.079999924,-0.980000019,56.95000076
00:3B:13:12:01:3D:4B:F1,left,1665651736,235,-0.003,0.056000002,1.07099998,-18.79999924,-4.699999809,-0.100000001,52,1705,1790,1319,52,1179,54,52,-4.309999943,-0.790000021,56.95000076
00:3B:13:12:01:3D:4B:F1,left,1665651736,236,0.012,-0.101000004,0.961000025,1.100000024,-6,5.099999905,52,1705,1908,1468,52,1074,52,52,-4.800000191,-0.419999987,57.04999924
00:3B:13:12:01:3D:4B:F1,left,1665651736,237,-0.014,0.034000002,1.059000015,-13.69999981,-6.5,-0.200000003,52,1730,1965,1540,52,845,52,52,-2.99000001,-0.610000014,57.04999924
00:3B:13:12:01:3D:4B:F1,left,1665651736,238,0.01,-0.081,0.984000027,-3.5,-6.699999809,1.899999976,52,1955,2170,1756,52,60,52,52,-3.880000114,-0.07,57.08000183
00:3B:13:12:01:3D:4B:F1,left,1665651736,239,0.017999999,-0.016000001,1.087000012,-17,-11.60000038,-2.099999905,52,1946,2159,2024,52,52,52,52,-3.200000048,0.07,57.04000092
00:3B:13:12:01:3D:4B:F1,left,1665651736,240,0.035999998,-0.030999999,1.159000039,-7.599999905,-20.39999962,-1.299999952,52,1946,2159,2170,52,52,52,52,-3.160000086,-0.109999999,57.02000046
00:3B:13:12:01:3D:4B:F1,left,1665651736,241,0.017999999,-0.035,1.182999969,6.199999809,-32.59999847,7.900000095,52,1946,2181,2225,52,52,52,52,-2.900000095,-0.589999974,57.16999817
00:3B:13:12:01:3D:4B:F1,left,1665651736,242,0.086000003,-0.039000001,1.245000005,-20.70000076,-46.59999847,18.79999924,52,1936,2203,2214,52,52,52,52,-3.150000095,-0.970000029,57.54000092
00:3B:13:12:01:3D:4B:F1,left,1665651736,243,0.068999998,-0.119000003,1.355000019,-1.5,-65.90000153,21.39999962,52,1880,2214,2138,52,52,52,52,-3.359999895,-1.75999999,57.95999908
00:3B:13:12:01:3D:4B:F1,left,1665651736,244,0.101000004,-0.041000001,1.251999974,-35.5,-97.5,66.59999847,52,1862,2214,2117,52,52,52,52,-3.849999905,-2.869999886,59.29000092
00:3B:13:12:01:3D:4B:F1,left,1665651736,245,0.127000004,-0.039999999,1.404999971,2.099999905,-123.9000015,32.90000153,360,1739,2055,1826,52,52,52,52,-3.589999914,-4.28000021,59.93999863
00:3B:13:12:01:3D:4B:F1,left,1665651736,246,0.103,-0.218999997,1.33099997,-12.19999981,-155,35.79999924,1016,1625,1955,1112,52,52,52,52,-4.380000114,-6.199999809,60.65000153
00:3B:13:12:01:3D:4B:F1,left,1665651736,247,0.151999995,-0.090000004,1.552999973,11.5,-187.5,6.599999905,1269,1714,2138,52,52,52,52,52,-4.059999943,-8.390000343,60.77999878
00:3B:13:12:01:3D:4B:F1,left,1665651736,248,-0.014,-0.291999996,1.375,21.70000076,-218.8000031,10.60000038,1533,1665,1714,52,52,52,52,52,-4.460000038,-11.53999996,60.99000168
00:3B:13:12:01:3D:4B:F1,left,1665651736,249,-0.057,-0.003,1.546000004,-9.5,-251,7,2096,1571,50,50,52,50,50,50,-4.190000057,-15.10999966,61.13000107
00:3B:13:12:01:3D:4B:F1,left,1665651736,250,-0.298000008,-0.104999997,1.495000005,1.899999976,-268.3999939,12.89999962,50,1504,0,0,0,0,0,0,-4.139999866,-19.54000092,61.38000107
00:3B:13:12:01:3D:4B:F1,left,1665651736,251,-0.458000004,-0.174999997,1.493999958,-23.5,-269.6000061,19,0,0,0,0,0,0,0,0,-4.809999943,-24.12999916,61.75999832
00:3B:13:12:01:3D:4B:F1,left,1665651736,252,-0.223000005,-0.123000003,1.705000043,3.5,-255.3999939,17.70000076,0,0,0,0,0,0,0,0,-4.670000076,-27.04999924,62.11000061
00:3B:13:12:01:3D:4B:F1,left,1665651736,253,-0.088,-0.226999998,0.964999974,44.29999924,-240.5,16.60000038,0,0,0,0,0,0,0,0,-8.510000229,-18.45999908,62.43999863
00:3B:13:12:01:3D:4B:F1,left,1665651736,254,0.648000002,-0.578000009,-0.35800001,72.40000153,-196.3000031,87.09999847,0,0,0,0,0,0,0,0,-41.47999954,-2.569999933,64.18000031
00:3B:13:12:01:3D:4B:F1,left,1665651736,255,0.034000002,0.746999979,0.958000004,-267.2999878,-14.80000019,5.699999809,0,0,0,0,0,0,0,0,-38.34000015,-2.410000086,64.29000092
00:3B:13:12:01:3D:4B:F1,left,1665651736,0,0.824999988,-0.708999991,0.237000003,252.5,69.59999847,118.0999985,0,0,0,0,0,0,0,0,-37.11000061,3.859999895,66.65000153
00:3B:13:12:01:3D:4B:F1,left,1665651736,1,0.483999997,0.254000008,0.685000002,-256.7999878,80,84.19999695,0,0,0,0,0,0,0,0,-35.97999954,8.260000229,68.33000183
00:3B:13:12:01:3D:4B:F1,left,1665651736,2,0.400999993,-0.60799998,0.256000012,182.1999969,109.0999985,34.90000153,0,0,0,0,0,0,0,0,-35.81999969,12.52000046,69.01999664
00:3B:13:12:01:3D:4B:F1,left,1665651736,3,0.474000007,0.598999977,0.894999981,-140.6000061,182.1999969,26.79999924,0,0,0,0,0,0,0,0,-31.37999916,16.90999985,69.55000305
00:3B:13:12:01:3D:4B:F1,left,1665651736,4,0.300999999,-0.381000012,0.097000003,113.1999969,246.8999939,41.09999847,0,0,0,0,0,0,0,0,-33.77000046,23.38999939,70.37000275
00:3B:13:12:01:3D:4B:F1,left,1665651736,5,0.474000007,0.338999987,0.887000024,-157.1000061,284.6000061,24.39999962,0,0,0,0,0,0,0,0,-19.55999947,28.30999947,70.84999847
00:3B:13:12:01:3D:4B:F1,left,1665651736,6,0.232999995,-0.307999998,0.556999981,49.40000153,279.3999939,36.59999847,0,0,0,0,0,0,0,0,-19.61000061,32.50999832,71.58000183
00:3B:13:12:01:3D:4B:F1,left,1665651736,7,-0.028999999,0.384000003,1.307999969,-176.8999939,230.6000061,17.20000076,0,0,0,0,0,0,0,0,-19.18000031,33.27999878,71.91999817
00:3B:13:12:01:3D:4B:F1,left,1665651736,8,-0.150000006,-0.026000001,1.376999974,57.79999924,194.6999969,40.09999847,0,0,0,0,0,0,0,0,-16.32999992,32.83000183,72.72000122
00:3B:13:12:01:3D:4B:F1,left,1665651736,9,-0.463999987,0.509000003,1.383999944,-106.1999969,190,33.70000076,0,0,0,0,0,0,0,0,-14.57999992,31.21999931,73.38999939
00:3B:13:12:01:3D:4B:F1,left,1665651736,10,-0.34799999,-0.282999992,1.444000006,-74.40000153,188,120.3000031,0,0,0,0,0,0,0,0,-15.56000042,30.14999962,75.79000092
00:3B:13:12:01:3D:4B:F1,left,1665651736,11,-0.442000002,0.640999973,1.952000022,-130.3999939,162.6999969,113.8000031,0,0,0,0,0,0,0,0,-14.52000046,28.84000015,78.05999756
00:3B:13:12:01:3D:4B:F1,left,1665651736,12,-0.619000018,0.125,1.417999983,-102.8000031,121.9000015,136,0,0,0,0,0,0,0,0,-14.39999962,25.79000092,80.77999878
00:3B:13:12:01:3D:4B:F1,left,1665651736,13,-0.828999996,0.661000013,2.381999969,-176.6000061,111.1999969,106.0999985,0,0,0,0,0,0,0,0,-14.57999992,23.35000038,82.90000153
00:3B:13:12:01:3D:4B:F1,left,1665651736,14,-0.916000009,-0.228,3.535000086,-46.40000153,124.5999985,79.59999847,0,0,0,0,0,0,0,0,-14.31000042,21.79999924,84.48999786
00:3B:13:12:01:3D:4B:F1,left,1665651736,15,-1.610999942,-0.034000002,1.299000025,123.5999985,133.1999969,10.5,0,0,0,0,0,0,0,0,-10.80000019,16.89999962,84.69999695
00:3B:13:12:01:3D:4B:F1,left,1665651736,16,-1.789999962,0.671999991,1.388000011,-107.1999969,82.80000305,17,0,0,0,0,0,0,0,0,-9.06000042,11.76000023,85.04000092
00:3B:13:12:01:3D:4B:F1,left,1665651736,17,-2.069999933,0.086000003,0.825999975,82.5,28.79999924,1.299999952,0,0,0,0,0,0,0,0,-6.070000172,4.28000021,85.05999756
00:3B:13:12:01:3D:4B:F1,left,1665651737,18,-1.889000058,0.904999971,1.065999985,-50.40000153,-82.69999695,3,0,0,0,0,0,0,0,0,-2.319999933,-2.980000019,85.12000275
00:3B:13:12:01:3D:4B:F1,left,1665651737,19,1.450999975,-1.133999944,1.029999971,147.8000031,-135.6000061,226,0,0,0,0,0,0,0,0,-4.199999809,-0.769999981,89.63999939
00:3B:13:12:01:3D:4B:F1,left,1665651737,20,-1.121999979,0.509000003,1.355000019,-64.80000305,-97.80000305,-218.8999939,52,50,50,50,50,50,1203,2463,-2.880000114,-6.21999979,85.26999664
00:3B:13:12:01:3D:4B:F1,left,1665651737,21,0.303000003,-1.222000003,1.633999944,65.69999695,-75.30000305,12.10000038,50,52,52,50,52,50,2413,2649,-5.090000153,-6.099999905,85.51000214
00:3B:13:12:01:3D:4B:F1,left,1665651737,22,-0.368000001,0.36500001,0.903999984,23.10000038,-55.5,-7.199999809,52,52,52,52,52,52,2594,2705,3.349999905,-11.25,85.37000275
00:3B:13:12:01:3D:4B:F1,left,1665651737,23,-0.790000021,0.654999971,0.992999971,35.29999924,-12.60000038,-148.1000061,50,52,52,52,52,52,2635,2734,6.980000019,-13.69999981,82.41000366
00:3B:13:12:01:3D:4B:F1,left,1665651737,24,0.39199999,-0.465000004,0.93599999,8.5,-1.200000048,7.699999809,50,52,52,52,52,50,2677,2778,3.789999962,-10.27000046,82.55999756
00:3B:13:12:01:3D:4B:F1,left,1665651737,25,-0.041000001,-0.006,1.101999998,27,-11.10000038,52.90000153,52,52,50,52,52,52,2720,2822,3.859999895,-9.649999619,83.61000061
00:3B:13:12:01:3D:4B:F1,left,1665651737,26,-0.123999998,-0.108000003,0.925999999,22.10000038,0.300000012,-17.70000076,52,52,52,50,52,50,2763,2868,1.00999999,-9.020000458,83.26000214
00:3B:13:12:01:3D:4B:F1,left,1665651737,27,0.108999997,-0.034000002,1.065999985,26.70000076,-2.400000095,14.60000038,52,52,52,52,50,52,2793,2899,0.519999981,-4.590000153,83.55000305
00:3B:13:12:01:3D:4B:F1,left,1665651737,28,-0.041999999,-0.088,0.953999996,8.399999619,-1.5,13.19999981,50,52,50,50,52,52,2838,2915,-1.100000024,-3.960000038,83.80999756
00:3B:13:12:01:3D:4B:F1,left,1665651737,29,-0.026000001,0.039000001,1.029000044,20.10000038,0.800000012,-1.899999976,52,84,52,52,50,54,2868,2931,0.159999996,-3.200000048,83.77999878
00:3B:13:12:01:3D:4B:F1,left,1665651737,30,0.037,-0.024,1.001999974,0.800000012,0,13.39999962,52,52,52,52,52,52,2899,2931,-0.600000024,-0.540000021,84.04000092
00:3B:13:12:01:3D:4B:F1,left,1665651737,31,-0.012,-0.035,0.994000018,17.79999924,-1.799999952,4.300000191,0,547,50,50,52,52,2915,2946,-1.129999995,-0.629999995,84.12000275
00:3B:13:12:01:3D:4B:F1,left,1665651737,32,0.004,-0.023,1.019000053,-2.5,-1,6,52,1518,52,52,52,52,2946,2962,-1.230000019,-0.200000003,84.23999786
00:3B:13:12:01:3D:4B:F1,left,1665651737,33,0.016000001,-0.055,0.981999993,14.80000019,-3.900000095,2.5,52,1917,52,52,52,52,2946,2962,-2.069999933,0.330000013,84.29000092
00:3B:13:12:01:3D:4B:F1,left,1665651737,34,-0.028999999,-0.011,1.021999955,-11.30000019,-3.299999952,-3.799999952,52,2426,52,52,52,52,2962,2962,-1.450000048,-0.670000017,84.22000122
00:3B:13:12:01:3D:4B:F1,left,1665651737,35,0.004,-0.034000002,0.989000022,8.600000381,-2.900000095,-0.300000012,52,2159,932,52,54,52,2946,2962,-1.620000005,-0.239999995,84.22000122
00:3B:13:12:01:3D:4B:F1,left,1665651737,36,0.004,0.001,1.018000007,-7.800000191,-3,5.400000095,52,2138,1179,52,54,52,2931,2962,-0.850000024,-0.029999999,84.31999969
00:3B:13:12:01:3D:4B:F1,left,1665651737,37,-0.008,-0.050999999,0.978999972,7.300000191,-1.899999976,1.200000048,52,2138,1263,52,54,52,2899,2946,-1.840000033,-0.25999999,84.33999634
00:3B:13:12:01:3D:4B:F1,left,1665651737,38,-0.014,0.017999999,1.016000032,-4,-1.399999976,1,52,2127,1345,52,54,52,2884,2931,-0.449999988,-0.519999981,84.36000061
00:3B:13:12:01:3D:4B:F1,left,1665651737,39,-0.006,-0.034000002,0.975000024,1.299999952,-1,4.699999809,54,2127,1392,52,54,52,2838,2915,-1.210000038,-0.430000007,84.44999695
00:3B:13:12:01:3D:4B:F1,left,1665651737,40,0,0.007,1.021999955,-3.200000048,-1.200000048,6.400000095,52,2117,1440,52,52,66,2807,2915,-0.430000007,-0.209999993,84.56999969
00:3B:13:12:01:3D:4B:F1,left,1665651737,41,-0.01,-0.034000002,0.984000027,1.100000024,-0.699999988,5.900000095,54,1975,1385,52,52,530,2807,2884,-1.190000057,-0.389999986,84.68000031
00:3B:13:12:01:3D:4B:F1,left,1665651737,42,-0.009,-0.002,1.013000011,-0.100000001,-0.800000012,6.5,52,1936,1385,52,54,692,2807,2884,-0.649999976,-0.439999998,84.80999756
00:3B:13:12:01:3D:4B:F1,left,1665651737,43,-0.007,-0.028000001,0.989000022,3.5,-0.400000006,10.39999962,52,1899,1371,52,54,849,2793,2868,-1.100000024,-0.419999987,85.01000214
00:3B:13:12:01:3D:4B:F1,left,1665651737,44,-0.007,-0.001,1.008000016,3.799999952,0,10,52,1862,1371,52,54,986,2793,2868,-0.540000021,-0.400000006,85.20999908
00:3B:13:12:01:3D:4B:F1,left,1665651737,45,-0.004,-0.016000001,1,4.599999905,0.200000003,9.800000191,52,1835,1365,52,54,1106,2793,2868,-0.680000007,-0.310000002,85.40000153
00:3B:13:12:01:3D:4B:F1,left,1665651737,46,-0.008,0.011,1.003000021,8.600000381,0.600000024,12,52,1817,1365,52,52,1139,2807,2884,0.050000001,-0.379999995,85.63999939
00:3B:13:12:01:3D:4B:F1,left,1665651737,47,-0.005,-0.003,1,9,1.200000048,9,54,1782,1358,52,54,1168,2807,2884,0.02,-0.330000013,85.81999969
00:3B:13:12:01:3D:4B:F1,left,1665651737,48,0,0.001,1.008999944,10.5,1.5,10,52,1681,1345,52,54,1063,2807,2868,0.140000001,-0.159999996,86.01999664
00:3B:13:12:01:3D:4B:F1,left,1665651737,49,0,0,1.006999969,11.10000038,2,8.100000381,52,540,1378,52,52,976,2793,2838,0.180000007,-0.059999999,86.18000031
00:3B:13:12:01:3D:4B:F1,left,1665651737,50,0.012,-0.009,1.013000011,10.30000019,1.799999952,4,52,52,1151,52,52,52,2748,2763,-0.059999999,0.319999993,86.26000214
00:3B:13:12:01:3D:4B:F1,left,1665651737,51,0.022,-0.030999999,1.01699996,6.699999809,0.600000024,2.799999952,50,52,52,52,52,50,2635,2621,-0.829999983,0.769999981,86.30999756
00:3B:13:12:01:3D:4B:F1,left,1665651737,52,0.025,-0.022,1.027999997,-5.400000095,-0.200000003,0,0,0,0,0,0,0,0,976,-1.070000052,1.080000043,86.30999756
00:3B:13:12:01:3D:4B:F1,left,1665651737,53,0.032000002,-0.059999999,1.018000007,-13.5,0.400000006,-1.700000048,0,0,0,0,0,0,0,0,-2.349999905,1.429999948,86.27999878
00:3B:13:12:01:3D:4B:F1,left,1665651737,54,0.048,-0.186000004,1.103999972,-15.19999981,-6,-16.70000076,0,0,0,0,0,0,0,0,-3.339999914,1.419999957,85.94999695
00:3B:13:12:01:3D:4B:F1,left,1665651737,55,-0.354000002,-0.588999987,1.080000043,37.79999924,-4.800000191,-25.39999962,0,0,0,0,0,0,0,0,-5.190000057,-0.400000006,85.44999695
00:3B:13:12:01:3D:4B:F1,left,1665651737,56,-0.748000026,-1.243999958,0.834999979,-2,-4.5,171.6000061,0,0,0,0,0,0,0,0,-10.31000042,-3.089999914,88.87999725
00:3B:13:12:01:3D:4B:F1,left,1665651737,57,-0.298999995,-0.782000005,1.215000033,1.799999952,-6.699999809,239.5,0,0,0,0,0,0,0,0,-12.52000046,-4.059999943,93.66999817
00:3B:13:12:01:3D:4B:F1,left,1665651737,58,-0.619000018,-0.91900003,0.890999973,18.29999924,-26.39999962,322.2000122,0,0,0,0,0,0,0,0,-15.52999973,-6.699999809,100.1100006
00:3B:13:12:01:3D:4B:F1,left,1665651737,59,-0.077,-0.460999995,1.307000041,39.79999924,2.099999905,328.1000061,0,0,0,0,0,0,0,0,-15.19999981,-6.309999943,106.6699982
00:3B:13:12:01:3D:4B:F1,left,1665651737,60,-0.158000007,-0.418000013,0.569000006,33.40000153,-15.69999981,326.6000061,0,0,0,0,0,0,0,0,-16.70999908,-7.210000038,113.1999969
00:3B:13:12:01:3D:4B:F1,left,1665651737,61,-0.187999994,-0.358999997,1.031999946,-42.90000153,-6.099999905,321.5,0,0,0,0,0,0,0,0,-17.71999931,-7.570000172,119.6299973
00:3B:13:12:01:3D:4B:F1,left,1665651737,62,-0.050999999,-0.361000001,1.162999988,9.100000381,-16.79999924,305.5,0,0,0,0,0,0,0,0,-17.51000023,-7.340000153,125.7399979
00:3B:13:12:01:3D:4B:F1,left,1665651737,63,-0.092,-0.231999993,0.939999998,-3.900000095,-53.09999847,301.7999878,0,0,0,0,0,0,0,0,-15.72000027,-6.909999847,131.7700043
00:3B:13:12:01:3D:4B:F1,left,1665651737,64,0.006,-0.165999994,1.088999987,-12.10000038,-89.40000153,283.3999939,0,0,0,0,0,0,0,0,-15.22999954,-7.78000021,137.4299927
00:3B:13:12:01:3D:4B:F1,left,1665651737,65,0.187000006,-0.653999984,0.786000013,33.59999847,-65.69999695,309.2999878,0,0,0,0,0,0,0,0,-22.12000084,-3.25,143.6100006
00:3B:13:12:01:3D:4B:F1,left,1665651737,66,1.200000048,0.787999988,1.047000051,7.900000095,-14.30000019,274.8999939,0,0,0,0,0,0,0,0,-16.06999969,1.070000052,149.1000061
00:3B:13:12:01:3D:4B:F1,left,1665651737,67,1.871000051,-0.439999998,0.211999997,43.09999847,-18.89999962,172.8000031,0,0,0,0,0,0,0,0,-20.11000061,8.159999847,152.5500031
00:3B:13:12:01:3D:4B:F1,left,1665651738,68,2.849999905,0.994000018,0.822000027,-45.59999847,54.5,55.29999924,0,0,0,0,0,0,0,0,-13.86999989,14.88000011,153.6499939
00:3B:13:12:01:3D:4B:F1,left,1665651738,69,0.180999994,0.90200001,1.925999999,-188.1000061,-2.5,-237.8999939,0,78,0,58,0,50,0,66,-13.35000038,13.82999992,148.8999939
00:3B:13:12:01:3D:4B:F1,left,1665651738,70,0.236000001,-1.148000002,0.751999974,306.1000061,-20.29999924,231.8999939,52,1946,1232,52,52,52,1714,2138,-12.18000031,13.06000042,153.5299988
00:3B:13:12:01:3D:4B:F1,left,1665651738,71,-0.493000001,0.85799998,1.605000019,-274.5,14.10000038,-231.3999939,52,2034,1533,52,52,52,2541,2621,-13.09000015,10.48999977,148.9100037
00:3B:13:12:01:3D:4B:F1,left,1665651738,72,0.698000014,-1.315000057,0.272000015,190.6999969,-20.79999924,146,52,2055,1617,52,52,52,2677,2720,-16.18000031,11.81000042,151.8300018
00:3B:13:12:01:3D:4B:F1,left,1665651738,73,-0.175999999,0.887000024,1.661999941,-60.09999847,-14.69999981,74.40000153,52,1871,1511,52,54,827,2748,2807,-12.82999992,9.829999924,153.3099976
00:3B:13:12:01:3D:4B:F1,left,1665651738,74,-0.238000005,-0.606999993,0.476999998,27.89999962,13.30000019,-56.59999847,54,1826,1489,52,54,1151,2793,2868,-16.22999954,7.360000134,152.1799927
00:3B:13:12:01:3D:4B:F1,left,1665651738,75,0.321999997,0.465999991,1.463999987,-23.29999924,-3.599999905,33.79999924,52,1808,1489,54,52,1257,2807,2899,-13.25,7.739999771,152.8500061
00:3B:13:12:01:3D:4B:F1,left,1665651738,76,-0.112000003,-0.423000008,0.609000027,-5.400000095,-3.599999905,23.89999962,52,1782,1468,52,54,1378,2807,2899,-15.48999977,6.039999962,153.3200073
00:3B:13:12:01:3D:4B:F1,left,1665651738,77,-0.066,0.470999986,1.338000059,2.5,3.200000048,-20.89999962,52,1747,1447,54,54,1419,2822,2915,-11.94999981,5.21999979,152.9100037
00:3B:13:12:01:3D:4B:F1,left,1665651738,78,0.119999997,-0.409000009,0.73299998,-24.39999962,-0.5,15.19999981,52,1641,1398,52,54,1447,2822,2915,-14.10000038,5.510000229,153.2100067
00:3B:13:12:01:3D:4B:F1,left,1665651738,79,0.039000001,0.025,1.187000036,26.89999962,0.200000003,4.699999809,54,52,1496,52,52,1681,2838,2931,-12.09000015,5.139999866,153.3000031
00:3B:13:12:01:3D:4B:F1,left,1665651738,80,-0.035999998,0.071999997,1.02699995,-71.19999695,3.799999952,5.5,52,52,567,52,52,1808,2853,2931,-8.25,3.039999962,153.4100037
00:3B:13:12:01:3D:4B:F1,left,1665651738,81,0.007,-0.041000001,0.957000017,62.59999847,4.900000095,8.399999619,52,52,52,52,52,1927,2868,2946,-5.630000114,2.309999943,153.5700073
00:3B:13:12:01:3D:4B:F1,left,1665651738,82,0.008,0.112999998,1.057000041,-56.79999924,6,21.79999924,52,52,52,52,52,1955,2899,2946,-2.900000095,1.830000043,154
00:3B:13:12:01:3D:4B:F1,left,1665651738,83,0.002,-0.068999998,0.924000025,48.90000153,5.900000095,16.10000038,52,52,52,52,52,1994,2915,2962,-2.630000114,1.389999986,154.3200073
00:3B:13:12:01:3D:4B:F1,left,1665651738,84,0.034000002,0.112000003,1.085000038,-47.29999924,5.900000095,27,52,52,52,52,52,2225,2915,2962,-0.730000019,1.580000043,154.8600006
00:3B:13:12:01:3D:4B:F1,left,1665651738,85,0.012,-0.092,0.922999978,35.09999847,4.699999809,20.89999962,52,52,52,52,52,2075,2915,2962,-1.720000029,1.389999986,155.2700043
00:3B:13:12:01:3D:4B:F1,left,1665651738,86,0.046,0.118000001,1.097000003,-36.40000153,3.900000095,15.80000019,52,52,52,52,52,1975,2884,2946,-1.580000043,1.549999952,155.5800018
00:3B:13:12:01:3D:4B:F1,left,1665651738,87,0.055,-0.172000006,0.924000025,6.300000191,2.799999952,14.80000019,52,52,52,52,52,1730,2838,2931,-4.179999828,2.119999886,155.8699951
00:3B:13:12:01:3D:4B:F1,left,1665651738,88,-0.029999999,0.142000005,1.090999961,-19.60000038,4.300000191,9.899999619,52,54,52,52,52,1208,2793,2899,-3.369999886,1.820000052,156.0599976
00:3B:13:12:01:3D:4B:F1,left,1665651738,89,-0.002,-0.059,0.927999973,-7.900000095,7.800000191,23.89999962,52,52,52,50,52,58,2720,2807,-3.549999952,1.340000033,156.5299988
00:3B:13:12:01:3D:4B:F1,left,1665651738,90,-0.023,0.044,1.088000059,-36.70000076,7.199999809,41.5,50,52,52,50,52,52,2489,2594,-2.299999952,0.670000017,157.3600006
00:3B:13:12:01:3D:4B:F1,left,1665651738,91,-0.239999995,-0.061999999,0.998000026,-15.39999962,5.800000191,45.40000153,0,0,0,0,0,0,0,141,-3.069999933,-6.349999905,158.2599945
00:3B:13:12:01:3D:4B:F1,left,1665651738,92,-0.398999989,0.007,1.110999942,-0.400000006,0.899999976,116.9000015,0,0,0,0,0,0,0,0,-2.720000029,-7.690000057,160.5899963
00:3B:13:12:01:3D:4B:F1,left,1665651738,93,-0.828999996,-0.226999998,1.154000044,21,0.899999976,165.5,0,0,0,0,0,0,0,0,-3.180000067,-10.43000031,163.8999939
00:3B:13:12:01:3D:4B:F1,left,1665651738,94,-0.953000009,-0.597000003,1.228000045,48.79999924,2.700000048,225.3000031,0,0,0,0,0,0,0,0,-4.579999924,-12.82999992,168.3999939
00:3B:13:12:01:3D:4B:F1,left,1665651738,95,-0.708999991,-0.871999979,1.133999944,61.90000153,-18.20000076,372.7000122,0,0,0,0,0,0,0,0,-6.769999981,-14.5,175.8500061
00:3B:13:12:01:3D:4B:F1,left,1665651738,96,-0.68900001,-0.565999985,1.110999942,104.4000015,-36.90000153,329,0,0,0,0,0,0,0,0,-6.920000076,-16.59000015,182.4299927
00:3B:13:12:01:3D:4B:F1,left,1665651738,97,-0.493000001,-0.657000005,1.029999971,21.5,-67.90000153,329.3999939,0,0,0,0,0,0,0,0,-9.090000153,-18.34000015,189.0099945
00:3B:13:12:01:3D:4B:F1,left,1665651738,98,-0.474999994,0.382999986,0.51700002,17.79999924,-91.69999695,204.1000061,0,0,0,0,0,0,0,0,-4.210000038,-21.79000092,193.0899963
00:3B:13:12:01:3D:4B:F1,left,1665651738,99,-0.238999993,-0.746999979,0.367000014,52.40000153,-57.90000153,219.6000061,0,0,0,0,0,0,0,0,-9.229999542,-22.23999977,197.4799957
00:3B:13:12:01:3D:4B:F1,left,1665651738,100,-0.26699999,0.686999977,1.58099997,-33.20000076,-55.90000153,65.19999695,0,0,0,0,0,0,0,0,-6.550000191,-21.88999939,198.7799988
00:3B:13:12:01:3D:4B:F1,left,1665651738,101,0.180999994,-0.648999989,0.704999983,-27.20000076,-69,164.1000061,0,0,0,0,0,0,0,0,-24.86000061,-6.28000021,202.0599976
00:3B:13:12:01:3D:4B:F1,left,1665651738,102,-0.009,0.189999998,1.169999957,32.79999924,-70.30000305,104.4000015,0,0,0,0,0,0,0,0,-20.86000061,-6.949999809,204.1399994
00:3B:13:12:01:3D:4B:F1,left,1665651738,103,0.737999976,-1.172999978,1.35800004,-121.3000031,-53.79999924,123.8000031,0,0,0,0,0,0,0,0,-25.03000069,-4.980000019,206.6100006
00:3B:13:12:01:3D:4B:F1,left,1665651738,104,0.833000004,0.293000013,1.291000009,50.70000076,-35.40000153,49.40000153,0,0,0,0,0,0,0,0,-20.32999992,-1.889999986,207.5899963
00:3B:13:12:01:3D:4B:F1,left,1665651738,105,1.157999992,-0.430999994,0.375,-91.90000153,-12.80000019,89.09999847,0,0,0,0,0,0,0,0,-24.84000015,4.440000057,209.3699951
00:3B:13:12:01:3D:4B:F1,left,1665651738,106,1.503000021,0.469000012,0.943000019,23.29999924,22.29999924,-4.400000095,0,0,0,0,0,0,0,0,-19.29000092,9.890000343,209.2899933
00:3B:13:12:01:3D:4B:F1,left,1665651738,107,2.332999945,-0.296000004,0.291999996,-14.39999962,65.19999695,82.09999847,0,0,0,0,0,0,0,0,-22.14999962,18.05999947,210.9299927
00:3B:13:12:01:3D:4B:F1,left,1665651738,108,-1.345999956,0.365999997,1.745000005,46.09999847,64.90000153,-240.6999969,50,280,1739,50,50,50,0,50,-17.92000008,13.71000004,206.1199951
00:3B:13:12:01:3D:4B:F1,left,1665651738,109,1.11500001,-0.859000027,1.144999981,16,32.70000076,193.6999969,50,1927,1633,50,50,50,50,50,-19.52000046,16.70999908,209.9900055
00:3B:13:12:01:3D:4B:F1,left,1665651738,110,-0.472000003,0.58099997,1.664000034,102.0999985,11.5,-73.40000153,50,1994,1656,50,50,50,50,50,-13.80000019,13.73999977,208.5299988
00:3B:13:12:01:3D:4B:F1,left,1665651738,111,0.448000014,-0.492000014,0.532000005,-34.29999924,-5,-28.70000076,50,1994,1648,50,52,52,50,52,-17.29999924,15.43999958,207.9600067
00:3B:13:12:01:3D:4B:F1,left,1665651738,112,-0.326999992,0.586000025,1.36500001,54.90000153,-1.299999952,26.5,50,1936,1601,50,50,50,50,52,-12.26000023,12.64999962,208.4900055
00:3B:13:12:01:3D:4B:F1,left,1665651738,113,0.068000004,-0.358999997,0.68599999,-7.599999905,7.300000191,-50.90000153,50,947,1586,50,50,50,50,50,-13.93000031,12.01000023,207.4799957
00:3B:13:12:01:3D:4B:F1,left,1665651738,114,0.061999999,0.075000003,1.241999984,32.70000076,0.200000003,46,50,78,1461,50,50,50,50,971,-11.60000038,11.09000015,208.3999939
00:3B:13:12:01:3D:4B:F1,left,1665651738,115,-0.067000002,0.013,0.949999988,-77.19999695,2.099999905,11.19999981,52,52,169,52,52,230,1908,2438,-8.960000038,6.579999924,208.6199951
00:3B:13:12:01:3D:4B:F1,left,1665651738,116,-0.026000001,0.105999999,1.041000009,65.90000153,4.400000095,-10.69999981,50,52,52,52,52,1173,2567,2663,-3.609999895,4.230000019,208.4100037
00:3B:13:12:01:3D:4B:F1,left,1665651738,117,0.066,0.007,0.995000005,-71.40000153,4.099999905,18.89999962,52,52,52,52,52,1482,2691,2763,-2.309999943,4.050000191,208.7799988
00:3B:13:12:01:3D:4B:F1,left,1665651738,118,-0.022,0.023,0.985000014,50.40000153,2.099999905,5.800000191,52,52,52,52,52,1641,2748,2822,0.01,1.399999976,208.8899994
00:3B:13:12:01:3D:4B:F1,left,1665651739,119,0.035,0.061000001,1.04400003,-61.5,2.799999952,11.30000019,52,52,52,52,52,1756,2778,2868,0.140000001,1.590000033,209.1100006
00:3B:13:12:01:3D:4B:F1,left,1665651739,120,-0.003,-0.028999999,0.954999983,37.20000076,1.399999976,11.10000038,52,52,52,52,54,1817,2793,2899,0.090000004,1.049999952,209.3300018
00:3B:13:12:01:3D:4B:F1,left,1665651739,121,-0.024,0.214000002,1.06099999,-53.29999924,4.5,9.800000191,52,52,52,52,52,1871,2807,2915,2.74000001,0.409999996,209.5200043
00:3B:13:12:01:3D:4B:F1,left,1665651739,122,0.016000001,-0.155000001,0.865999997,14.39999962,4.199999809,8.5,52,52,52,52,52,1844,2822,2915,1.700000048,0.540000021,209.6900024
00:3B:13:12:01:3D:4B:F1,left,1665651739,123,0.037999999,0.142000005,1.123000026,-13.5,2.799999952,6.099999905,52,52,52,52,52,1808,2853,2931,2,0.720000029,209.8099976
00:3B:13:12:01:3D:4B:F1,left,1665651739,124,0.025,-0.115000002,0.912,7.900000095,2.299999952,9,52,52,52,52,52,1730,2868,2931,-0.649999976,0.99000001,209.9900055
00:3B:13:12:01:3D:4B:F1,left,1665651739,125,-0.005,0.140000001,1.085000038,-4.300000191,3,0,52,52,52,52,52,1461,2884,2931,1.690000057,0.649999976,209.9900055
00:3B:13:12:01:3D:4B:F1,left,1665651739,126,0.055,-0.072999999,0.920000017,1.399999976,0.699999988,1.299999952,52,52,52,52,52,1208,2884,2946,-0.159999996,1.470000029,210.0099945
00:3B:13:12:01:3D:4B:F1,left,1665651739,127,0.022,0.083999999,1.075000048,4.199999809,-1.100000024,2.700000048,52,52,52,52,52,793,2884,2931,1.279999971,1.370000005,210.0599976
00:3B:13:12:01:3D:4B:F1,left,1665651739,128,0.012,0,0.958999991,-4.5,0.5,5,52,52,52,52,52,50,2884,2946,0.829999983,1.169999957,210.1600037
00:3B:13:12:01:3D:4B:F1,left,1665651739,129,-0.013,0.063000001,1.001999974,10.10000038,1.200000048,1.100000024,52,52,52,52,52,52,2884,2931,2.309999943,0.209999993,210.1799927
00:3B:13:12:01:3D:4B:F1,left,1665651739,130,0.035999998,0.008,0.994000018,-10.30000019,1.399999976,-2.599999905,52,52,50,50,52,52,2884,2931,1.279999971,1.139999986,210.1300049
00:3B:13:12:01:3D:4B:F1,left,1665651739,131,0.052999999,0.011,0.995999992,14,-1.299999952,-0.5,52,52,52,52,52,50,2884,2931,1.090000033,2.089999914,210.1300049
00:3B:13:12:01:3D:4B:F1,left,1665651739,132,0.005,0.052000001,1.003000021,-6.900000095,-1,-3,52,52,50,50,50,50,2884,2931,1.960000038,1.179999948,210.0700073
00:3B:13:12:01:3D:4B:F1,left,1665651739,133,0.006,0.028000001,0.994000018,10.39999962,0.200000003,-5,52,52,50,50,52,52,2899,2931,1.879999995,0.75999999,209.9700012
00:3B:13:12:01:3D:4B:F1,left,1665651739,134,0.017000001,0.064999998,0.996999979,-9.100000381,0.600000024,-2.299999952,50,50,52,52,52,52,2884,2931,2.710000038,0.860000014,209.9299927
00:3B:13:12:01:3D:4B:F1,left,1665651739,135,0.043000001,0.009,0.991999984,11.10000038,-0.200000003,5.300000191,52,52,52,50,52,52,2884,2931,1.720000029,1.669999957,210.0299988
00:3B:13:12:01:3D:4B:F1,left,1665651739,136,0.009,0.056000002,1.031000018,-3.900000095,0,1.299999952,50,52,50,50,52,52,2899,2931,2.079999924,1.309999943,210.0500031
00:3B:13:12:01:3D:4B:F1,left,1665651739,137,0.007,0.028999999,0.975000024,4.900000095,1.399999976,-2.799999952,50,52,50,50,52,52,2884,2931,1.929999948,0.860000014,210
00:3B:13:12:01:3D:4B:F1,left,1665651739,138,0.050000001,0.056000002,1.019999981,-4.800000191,0.600000024,3.900000095,50,52,52,50,52,52,2899,2915,2.49000001,1.830000043,210.0700073
00:3B:13:12:01:3D:4B:F1,left,1665651739,139,0,0.007,0.980000019,3,1.200000048,-4.5,50,52,52,52,52,52,2884,2915,1.470000029,0.910000026,209.9799957
00:3B:13:12:01:3D:4B:F1,left,1665651739,140,0.022,0.077,1.019999981,-8.199999809,2.799999952,2.5,52,52,52,52,52,52,2868,2899,2.809999943,1.090000033,210.0299988
00:3B:13:12:01:3D:4B:F1,left,1665651739,141,0.050000001,0.012,0.976000011,0.5,3.299999952,2.099999905,52,52,52,50,52,50,2853,2884,1.75999999,2.039999962,210.0700073
00:3B:13:12:01:3D:4B:F1,left,1665651739,142,0.02,0.054000001,1.037999988,-8.800000191,2.700000048,-3.5,52,50,52,50,50,50,2853,2868,2,1.789999962,210
00:3B:13:12:01:3D:4B:F1,left,1665651739,143,0.032000002,0,0.967999995,-3.900000095,3.099999905,-2.400000095,50,50,50,50,52,52,2822,2838,1.350000024,1.860000014,209.9600067
00:3B:13:12:01:3D:4B:F1,left,1665651739,144,0.037,0.077,1.016000032,-4.900000095,1.700000048,-4.599999905,50,52,50,50,50,50,2807,2822,2.789999962,1.980000019,209.8699951
00:3B:13:12:01:3D:4B:F1,left,1665651739,145,0.081,0,0.963,-0.100000001,-0.300000012,-2.200000048,52,52,52,52,52,52,2807,2793,1.950000048,2.819999933,209.8300018
00:3B:13:12:01:3D:4B:F1,left,1665651739,146,-0.002,0.068999998,1.021999955,-8.100000381,-1,-10,52,52,52,50,52,50,2807,2778,2.819999933,1.350000024,209.6300049
00:3B:13:12:01:3D:4B:F1,left,1665651739,147,0.004,0.041000001,0.995999992,-4.599999905,4.300000191,-4.099999905,50,52,52,50,50,52,2807,2748,2.539999962,0.819999993,209.5500031
00:3B:13:12:01:3D:4B:F1,left,1665651739,148,0.041999999,0.030999999,1.001000047,-9.899999619,5,-1.799999952,52,52,52,50,52,52,2793,2720,2.059999943,1.659999967,209.5200043
00:3B:13:12:01:3D:4B:F1,left,1665651739,149,0.057,0.039000001,0.98299998,-5.099999905,2.599999905,3.700000048,52,52,52,50,50,52,2778,2705,2.109999895,2.50999999,209.5899963
00:3B:13:12:01:3D:4B:F1,left,1665651739,150,0.071999997,0.029999999,0.991999984,-6.400000095,-3.200000048,3.299999952,52,52,52,52,52,52,2778,2705,1.860000014,3.289999962,209.6499939
00:3B:13:12:01:3D:4B:F1,left,1665651739,151,0.046999998,0.016000001,0.976999998,-3.200000048,-7.300000191,2.400000095,52,52,52,52,52,52,2748,2705,1.360000014,2.950000048,209.6900024
00:3B:13:12:01:3D:4B:F1,left,1665651739,152,-0.023,0.052999999,1.037999988,-9.300000191,-6.400000095,4,50,52,52,50,52,52,2748,2677,1.700000048,1.600000024,209.7700043
00:3B:13:12:01:3D:4B:F1,left,1665651739,153,0.035999998,-0.009,0.999000013,-1.700000048,-0.899999976,11.89999962,50,52,52,50,52,52,2734,2677,0.569999993,1.830000043,210
00:3B:13:12:01:3D:4B:F1,left,1665651739,154,0.009,0.041000001,1.006000042,-13.39999962,0.899999976,-0.899999976,50,50,52,52,52,50,2720,2663,1.320000052,1.169999957,209.9900055
00:3B:13:12:01:3D:4B:F1,left,1665651739,155,0.061000001,-0.004,0.991999984,-1.399999976,-0.899999976,6.5,50,52,52,50,52,50,2691,2635,0.529999971,2.339999914,210.1199951
00:3B:13:12:01:3D:4B:F1,left,1665651739,156,0.023,0.037999999,1.003999949,-12.19999981,-1.399999976,6.599999905,52,50,52,50,50,52,2677,2594,1.220000029,1.820000052,210.25
00:3B:13:12:01:3D:4B:F1,left,1665651739,157,0.028999999,-0.001,0.980000019,-1.799999952,-1.700000048,3.200000048,50,52,52,50,52,50,2649,2554,0.560000002,1.74000001,210.3099976
00:3B:13:12:01:3D:4B:F1,left,1665651739,158,0.035,0.022,1.016000032,-10.30000019,-1.299999952,2.5,50,52,52,50,52,50,2594,2451,0.800000012,1.850000024,210.3600006
00:3B:13:12:01:3D:4B:F1,left,1665651739,159,0.034000002,-0.003,0.98299998,-6.599999905,-1.899999976,0.800000012,50,52,52,50,50,50,2489,1722,0.239999995,1.899999976,210.3699951
00:3B:13:12:01:3D:4B:F1,left,1665651739,160,0.016000001,0.029999999,1.016000032,-13.30000019,-1.100000024,2.599999905,50,50,50,50,50,50,1151,1378,0.829999983,1.399999976,210.4199982
00:3B:13:12:01:3D:4B:F1,left,1665651739,161,0.033,0,0.990999997,-11.30000019,0.400000006,10,0,0,0,0,0,0,0,0,0.300000012,1.649999976,210.6199951
00:3B:13:12:01:3D:4B:F1,left,1665651739,162,0.039999999,-0.004,1.008999944,-15.69999981,0.100000001,1.700000048,0,0,0,0,0,0,0,0,-0.109999999,1.960000038,210.6499939
00:3B:13:12:01:3D:4B:F1,left,1665651739,163,0.059,-0.034000002,1.003000021,-12.89999962,-1.299999952,5.099999905,0,0,0,0,0,0,0,0,-1.149999976,2.660000086,210.75
00:3B:13:12:01:3D:4B:F1,left,1665651739,164,0.075999998,-0.037999999,1.01699996,-13,-3.5,2.299999952,0,0,0,0,0,0,0,0,-1.769999981,3.430000067,210.7899933
00:3B:13:12:01:3D:4B:F1,left,1665651739,165,0.093999997,-0.061999999,1.019000053,-12.39999962,-7.900000095,-5.300000191,0,0,0,0,0,0,0,0,-2.74000001,4.269999981,210.6900024
00:3B:13:12:01:3D:4B:F1,left,1665651739,166,0.118000001,-0.012,1.008000016,-9.5,-10.19999981,-5,0,0,0,0,0,0,0,0,-1.799999952,5.369999886,210.5899963
00:3B:13:12:01:3D:4B:F1,left,1665651739,167,0.238999993,0.009,1.014000058,-14,-9.699999809,1.200000048,0,0,0,0,0,0,0,0,-1.299999952,7.599999905,210.6100006
00:3B:13:12:01:3D:4B:F1,left,1665651739,168,0.268999994,0.030999999,1.067999959,-5,-12.39999962,11.30000019,0,0,0,0,0,0,0,0,-1.090000033,8.029999733,210.8300018
00:3B:13:12:01:3D:4B:F1,left,1665651740,169,0.166999996,0.092,1.128000021,-6.099999905,-18.70000076,-5.5,0,0,0,0,0,0,0,0,-0.620000005,7.730000019,210.7200012
00:3B:13:12:01:3D:4B:F1,left,1665651740,170,0.068999998,-0.037,1.062000036,15.10000038,-22.89999962,6.599999905,0,0,0,0,0,0,0,0,-0.819999993,6.210000038,210.8500061
00:3B:13:12:01:3D:4B:F1,left,1665651740,171,0.046,0.100000001,1.25,-33,-38.59999847,11.5,0,0,0,0,0,0,0,0,-0.870000005,5.099999905,211.0800018
00:3B:13:12:01:3D:4B:F1,left,1665651740,172,-0.07,-0.104000002,1.008000016,6.099999905,-48.5,12.89999962,0,0,0,0,0,0,0,0,-3.319999933,0.079999998,211.3300018
00:3B:13:12:01:3D:4B:F1,left,1665651740,173,-0.120999999,0.012,1.082999945,-8.100000381,-49.59999847,0,0,0,0,0,0,0,0,0,-2.24000001,-2.539999962,211.3300018
00:3B:13:12:01:3D:4B:F1,left,1665651740,174,-0.148000002,-0.119999997,0.916000009,11.89999962,-47.70000076,11.5,0,0,0,0,0,0,0,0,-3.640000105,-5.170000076,211.5599976
00:3B:13:12:01:3D:4B:F1,left,1665651740,175,-0.208000004,-0.050999999,0.930999994,-4.5,-43,2.799999952,0,0,0,0,0,0,0,0,-3.549999952,-7.989999771,211.6100006
00:3B:13:12:01:3D:4B:F1,left,1665651740,176,-0.216000006,-0.149000004,0.838,13.80000019,-35.09999847,9.399999619,0,0,0,0,0,0,0,0,-3.960000038,-9.239999771,211.7899933
00:3B:13:12:01:3D:4B:F1,left,1665651740,177,-0.263000011,-0.177000001,0.907000005,-7.599999905,-26.70000076,2.900000095,0,0,0,0,0,0,0,0,-6.179999828,-11.60000038,211.8399963
00:3B:13:12:01:3D:4B:F1,left,1665651740,178,-0.239999995,-0.125,0.953000009,-10.19999981,-21.60000038,9.699999809,0,0,0,0,0,0,0,0,-6.920000076,-13.02000046,212.0299988
00:3B:13:12:01:3D:4B:F1,left,1665651740,179,-0.248999998,-0.153999999,0.901000023,6.199999809,-16.39999962,11.10000038,0,0,0,0,0,0,0,0,-7.659999847,-13.89999962,212.25
00:3B:13:12:01:3D:4B:F1,left,1665651740,180,-0.137999997,-0.092,0.920000017,-8.800000191,-8.300000191,19.60000038,0,0,0,0,0,0,0,0,-7.190000057,-12.38000011,212.6399994
00:3B:13:12:01:3D:4B:F1,left,1665651740,181,-0.150000006,-0.081,0.953000009,5,-4.599999905,23.20000076,0,0,0,0,0,0,0,0,-6.420000076,-11.39999962,213.1000061
00:3B:13:12:01:3D:4B:F1,left,1665651740,182,-0.152999997,-0.068999998,0.94599998,-5.800000191,-2.599999905,23.70000076,0,0,0,0,0,0,0,0,-5.820000172,-10.76000023,213.5700073
00:3B:13:12:01:3D:4B:F1,left,1665651740,183,-0.140000001,-0.059,0.99000001,1.299999952,-1.100000024,26.60000038,0,0,0,0,0,0,0,0,-4.599999905,-9.390000343,214.1000061
00:3B:13:12:01:3D:4B:F1,left,1665651740,184,-0.125,-0.046999998,1.101999998,-14.30000019,-3.099999905,27.10000038,0,0,0,0,0,0,0,0,-4.630000114,-9.149999619,214.6399994
00:3B:13:12:01:3D:4B:F1,left,1665651740,185,-0.108000003,-0.055,1.110000014,10.30000019,-11.10000038,23.89999962,0,0,0,0,0,0,0,0,-4.269999981,-8.979999542,215.1100006
00:3B:13:12:01:3D:4B:F1,left,1665651740,186,-0.187000006,-0.057,1.175999999,-21.29999924,-24.79999924,19.60000038,0,0,0,0,0,0,0,0,-4.489999771,-9.420000076,215.5
00:3B:13:12:01:3D:4B:F1,left,1665651740,187,-0.141000003,-0.126000002,1.108999968,13.69999981,-33.40000153,30.60000038,0,0,0,0,0,0,0,0,-4.440000057,-9.789999962,216.1100006
00:3B:13:12:01:3D:4B:F1,left,1665651740,188,-0.187999994,-0.021,1.146000028,-34,-44.20000076,21.29999924,0,0,0,0,0,0,0,0,-4.710000038,-10.52999973,216.5299988
00:3B:13:12:01:3D:4B:F1,left,1665651740,189,-0.218999997,-0.089000002,1.032999992,12.69999981,-48.59999847,15.5,0,0,0,0,0,0,0,0,-4.590000153,-11.61999989,216.8399963
